File: data/Sirion/7kV-S5-5mm-100sec-coated-end-1.msa
#FORMAT      : EMSA/MAS Spectral Data File
#VERSION     : 1.0
#TITLE       : 7kV-S5-5mm-100sec-coated-end-1
#DATE        : 01-JUN-2017
#TIME        : 14:24
#OWNER       : John Minter
#NPOINTS     : 2048.0
#NCOLUMNS    : 1.0
#XUNITS      : keV
#YUNITS      : counts
#DATATYPE    : XY
#XPERCHAN    : 0.005
#OFFSET      : -0.1
#SIGNALTYPE  : EDS
#CHOFFSET    : 20.0
#LIVETIME    : 100.0
#REALTIME    : 110.345
#BEAMKV      : 7.0
#PROBECUR    : 2.288
#MAGCAM      : 100000.0
#XTILTSTGE   : 0.0
#AZIMANGLE   : 0.0
#ELEVANGLE   : 35.0
#XPOSITION mm: -4.5840
#YPOSITION mm: 2.5710
#ZPOSITION mm: 5.0040
##OXINSTPT   : 4
##OXINSTSTROB: 47.98
##OXINSTELEMS: 6,14
##OXINSTLABEL: 6, 0.277, C
##OXINSTLABEL: 14, 1.740, Si
#SPECTRUM    : Spectral Data Starts Here
-0.10000, 0.0
-0.09000, 0.0
-0.08000, 0.0
-0.07000, 2.0
-0.06000, 7.0
-0.05000, 24.0
-0.04000, 75.0
-0.03000, 223.0
-0.02000, 523.0
-0.01000, 869.0
0.00000, 1319.0
0.01000, 1696.0
0.02000, 2022.0
0.03000, 2267.0
0.04000, 2389.0
0.05000, 2243.0
0.06000, 1968.0
0.07000, 1765.0
0.08000, 1872.0
0.09000, 2195.0
0.10000, 2266.0
0.11000, 1960.0
0.12000, 1428.0
0.13000, 861.0
0.14000, 476.0
0.15000, 244.0
0.16000, 164.0
0.17000, 144.0
0.18000, 150.0
0.19000, 150.0
0.20000, 168.0
0.21000, 209.0
0.22000, 277.0
0.23000, 392.0
0.24000, 565.0
0.25000, 820.0
0.26000, 1007.0
0.27000, 1254.0
0.28000, 1217.0
0.29000, 1089.0
0.30000, 822.0
0.31000, 550.0
0.32000, 346.0
0.33000, 282.0
0.34000, 225.0
0.35000, 222.0
0.36000, 254.0
0.37000, 298.0
0.38000, 298.0
0.39000, 331.0
0.40000, 352.0
0.41000, 392.0
0.42000, 405.0
0.43000, 435.0
0.44000, 450.0
0.45000, 510.0
0.46000, 527.0
0.47000, 569.0
0.48000, 628.0
0.49000, 676.0
0.50000, 737.0
0.51000, 767.0
0.52000, 757.0
0.53000, 800.0
0.54000, 740.0
0.55000, 680.0
0.56000, 607.0
0.57000, 612.0
0.58000, 583.0
0.59000, 635.0
0.60000, 621.0
0.61000, 664.0
0.62000, 644.0
0.63000, 685.0
0.64000, 699.0
0.65000, 727.0
0.66000, 734.0
0.67000, 755.0
0.68000, 737.0
0.69000, 763.0
0.70000, 733.0
0.71000, 740.0
0.72000, 774.0
0.73000, 820.0
0.74000, 801.0
0.75000, 787.0
0.76000, 810.0
0.77000, 785.0
0.78000, 796.0
0.79000, 792.0
0.80000, 836.0
0.81000, 805.0
0.82000, 809.0
0.83000, 832.0
0.84000, 798.0
0.85000, 852.0
0.86000, 810.0
0.87000, 777.0
0.88000, 788.0
0.89000, 847.0
0.90000, 796.0
0.91000, 802.0
0.92000, 830.0
0.93000, 771.0
0.94000, 765.0
0.95000, 794.0
0.96000, 797.0
0.97000, 771.0
0.98000, 741.0
0.99000, 736.0
1.00000, 788.0
1.01000, 740.0
1.02000, 752.0
1.03000, 816.0
1.04000, 719.0
1.05000, 732.0
1.06000, 744.0
1.07000, 752.0
1.08000, 716.0
1.09000, 792.0
1.10000, 748.0
1.11000, 710.0
1.12000, 737.0
1.13000, 695.0
1.14000, 696.0
1.15000, 686.0
1.16000, 676.0
1.17000, 683.0
1.18000, 668.0
1.19000, 678.0
1.20000, 679.0
1.21000, 676.0
1.22000, 662.0
1.23000, 684.0
1.24000, 662.0
1.25000, 649.0
1.26000, 677.0
1.27000, 641.0
1.28000, 668.0
1.29000, 631.0
1.30000, 626.0
1.31000, 635.0
1.32000, 658.0
1.33000, 637.0
1.34000, 636.0
1.35000, 632.0
1.36000, 624.0
1.37000, 614.0
1.38000, 634.0
1.39000, 607.0
1.40000, 653.0
1.41000, 636.0
1.42000, 646.0
1.43000, 633.0
1.44000, 657.0
1.45000, 672.0
1.46000, 655.0
1.47000, 674.0
1.48000, 674.0
1.49000, 660.0
1.50000, 708.0
1.51000, 732.0
1.52000, 692.0
1.53000, 751.0
1.54000, 726.0
1.55000, 669.0
1.56000, 710.0
1.57000, 746.0
1.58000, 713.0
1.59000, 723.0
1.60000, 702.0
1.61000, 680.0
1.62000, 732.0
1.63000, 894.0
1.64000, 1238.0
1.65000, 1954.0
1.66000, 3309.0
1.67000, 5942.0
1.68000, 10163.0
1.69000, 16222.0
1.70000, 23860.0
1.71000, 32781.0
1.72000, 41498.0
1.73000, 47937.0
1.74000, 51146.0
1.75000, 49936.0
1.76000, 44867.0
1.77000, 37996.0
1.78000, 29145.0
1.79000, 21101.0
1.80000, 14589.0
1.81000, 9720.0
1.82000, 6587.0
1.83000, 4558.0
1.84000, 3609.0
1.85000, 2802.0
1.86000, 2279.0
1.87000, 1831.0
1.88000, 1452.0
1.89000, 1110.0
1.90000, 812.0
1.91000, 611.0
1.92000, 471.0
1.93000, 387.0
1.94000, 351.0
1.95000, 296.0
1.96000, 302.0
1.97000, 285.0
1.98000, 273.0
1.99000, 277.0
2.00000, 282.0
2.01000, 263.0
2.02000, 285.0
2.03000, 259.0
2.04000, 263.0
2.05000, 262.0
2.06000, 258.0
2.07000, 272.0
2.08000, 266.0
2.09000, 248.0
2.10000, 247.0
2.11000, 269.0
2.12000, 264.0
2.13000, 248.0
2.14000, 272.0
2.15000, 239.0
2.16000, 261.0
2.17000, 276.0
2.18000, 254.0
2.19000, 251.0
2.20000, 273.0
2.21000, 228.0
2.22000, 248.0
2.23000, 258.0
2.24000, 254.0
2.25000, 256.0
2.26000, 253.0
2.27000, 231.0
2.28000, 249.0
2.29000, 244.0
2.30000, 251.0
2.31000, 249.0
2.32000, 235.0
2.33000, 233.0
2.34000, 227.0
2.35000, 237.0
2.36000, 247.0
2.37000, 218.0
2.38000, 234.0
2.39000, 227.0
2.40000, 223.0
2.41000, 237.0
2.42000, 238.0
2.43000, 221.0
2.44000, 242.0
2.45000, 236.0
2.46000, 240.0
2.47000, 204.0
2.48000, 217.0
2.49000, 219.0
2.50000, 219.0
2.51000, 222.0
2.52000, 240.0
2.53000, 222.0
2.54000, 218.0
2.55000, 217.0
2.56000, 219.0
2.57000, 234.0
2.58000, 241.0
2.59000, 225.0
2.60000, 219.0
2.61000, 225.0
2.62000, 192.0
2.63000, 192.0
2.64000, 212.0
2.65000, 198.0
2.66000, 215.0
2.67000, 228.0
2.68000, 228.0
2.69000, 206.0
2.70000, 204.0
2.71000, 199.0
2.72000, 193.0
2.73000, 228.0
2.74000, 222.0
2.75000, 201.0
2.76000, 193.0
2.77000, 207.0
2.78000, 198.0
2.79000, 208.0
2.80000, 193.0
2.81000, 194.0
2.82000, 199.0
2.83000, 187.0
2.84000, 182.0
2.85000, 198.0
2.86000, 178.0
2.87000, 203.0
2.88000, 164.0
2.89000, 193.0
2.90000, 188.0
2.91000, 181.0
2.92000, 185.0
2.93000, 160.0
2.94000, 173.0
2.95000, 195.0
2.96000, 182.0
2.97000, 152.0
2.98000, 192.0
2.99000, 173.0
3.00000, 184.0
3.01000, 151.0
3.02000, 176.0
3.03000, 153.0
3.04000, 171.0
3.05000, 157.0
3.06000, 163.0
3.07000, 178.0
3.08000, 176.0
3.09000, 166.0
3.10000, 152.0
3.11000, 179.0
3.12000, 162.0
3.13000, 166.0
3.14000, 179.0
3.15000, 163.0
3.16000, 177.0
3.17000, 179.0
3.18000, 168.0
3.19000, 157.0
3.20000, 172.0
3.21000, 171.0
3.22000, 157.0
3.23000, 145.0
3.24000, 160.0
3.25000, 155.0
3.26000, 161.0
3.27000, 143.0
3.28000, 141.0
3.29000, 135.0
3.30000, 156.0
3.31000, 155.0
3.32000, 158.0
3.33000, 178.0
3.34000, 151.0
3.35000, 141.0
3.36000, 142.0
3.37000, 166.0
3.38000, 151.0
3.39000, 149.0
3.40000, 158.0
3.41000, 177.0
3.42000, 163.0
3.43000, 203.0
3.44000, 220.0
3.45000, 237.0
3.46000, 253.0
3.47000, 272.0
3.48000, 266.0
3.49000, 280.0
3.50000, 288.0
3.51000, 263.0
3.52000, 229.0
3.53000, 218.0
3.54000, 206.0
3.55000, 195.0
3.56000, 185.0
3.57000, 160.0
3.58000, 159.0
3.59000, 133.0
3.60000, 155.0
3.61000, 156.0
3.62000, 120.0
3.63000, 130.0
3.64000, 143.0
3.65000, 110.0
3.66000, 130.0
3.67000, 124.0
3.68000, 118.0
3.69000, 125.0
3.70000, 110.0
3.71000, 133.0
3.72000, 121.0
3.73000, 131.0
3.74000, 106.0
3.75000, 116.0
3.76000, 110.0
3.77000, 106.0
3.78000, 105.0
3.79000, 110.0
3.80000, 95.0
3.81000, 108.0
3.82000, 115.0
3.83000, 107.0
3.84000, 117.0
3.85000, 116.0
3.86000, 106.0
3.87000, 108.0
3.88000, 109.0
3.89000, 115.0
3.90000, 103.0
3.91000, 115.0
3.92000, 118.0
3.93000, 101.0
3.94000, 115.0
3.95000, 117.0
3.96000, 96.0
3.97000, 98.0
3.98000, 100.0
3.99000, 110.0
4.00000, 102.0
4.01000, 97.0
4.02000, 101.0
4.03000, 103.0
4.04000, 97.0
4.05000, 85.0
4.06000, 109.0
4.07000, 91.0
4.08000, 93.0
4.09000, 103.0
4.10000, 80.0
4.11000, 97.0
4.12000, 90.0
4.13000, 94.0
4.14000, 100.0
4.15000, 92.0
4.16000, 89.0
4.17000, 94.0
4.18000, 87.0
4.19000, 76.0
4.20000, 90.0
4.21000, 85.0
4.22000, 95.0
4.23000, 85.0
4.24000, 88.0
4.25000, 80.0
4.26000, 58.0
4.27000, 75.0
4.28000, 89.0
4.29000, 78.0
4.30000, 79.0
4.31000, 93.0
4.32000, 92.0
4.33000, 80.0
4.34000, 80.0
4.35000, 78.0
4.36000, 82.0
4.37000, 86.0
4.38000, 90.0
4.39000, 72.0
4.40000, 76.0
4.41000, 77.0
4.42000, 76.0
4.43000, 84.0
4.44000, 75.0
4.45000, 76.0
4.46000, 77.0
4.47000, 74.0
4.48000, 75.0
4.49000, 76.0
4.50000, 76.0
4.51000, 82.0
4.52000, 83.0
4.53000, 66.0
4.54000, 75.0
4.55000, 77.0
4.56000, 67.0
4.57000, 60.0
4.58000, 80.0
4.59000, 60.0
4.60000, 71.0
4.61000, 64.0
4.62000, 66.0
4.63000, 71.0
4.64000, 56.0
4.65000, 67.0
4.66000, 61.0
4.67000, 72.0
4.68000, 62.0
4.69000, 61.0
4.70000, 60.0
4.71000, 65.0
4.72000, 57.0
4.73000, 58.0
4.74000, 68.0
4.75000, 59.0
4.76000, 63.0
4.77000, 55.0
4.78000, 61.0
4.79000, 70.0
4.80000, 66.0
4.81000, 59.0
4.82000, 60.0
4.83000, 57.0
4.84000, 62.0
4.85000, 57.0
4.86000, 55.0
4.87000, 64.0
4.88000, 64.0
4.89000, 65.0
4.90000, 64.0
4.91000, 49.0
4.92000, 55.0
4.93000, 61.0
4.94000, 43.0
4.95000, 52.0
4.96000, 65.0
4.97000, 53.0
4.98000, 54.0
4.99000, 47.0
5.00000, 57.0
5.01000, 47.0
5.02000, 61.0
5.03000, 43.0
5.04000, 68.0
5.05000, 59.0
5.06000, 55.0
5.07000, 50.0
5.08000, 50.0
5.09000, 47.0
5.10000, 52.0
5.11000, 35.0
5.12000, 48.0
5.13000, 46.0
5.14000, 57.0
5.15000, 44.0
5.16000, 53.0
5.17000, 49.0
5.18000, 45.0
5.19000, 39.0
5.20000, 40.0
5.21000, 51.0
5.22000, 50.0
5.23000, 47.0
5.24000, 39.0
5.25000, 47.0
5.26000, 40.0
5.27000, 53.0
5.28000, 49.0
5.29000, 35.0
5.30000, 45.0
5.31000, 38.0
5.32000, 42.0
5.33000, 54.0
5.34000, 43.0
5.35000, 57.0
5.36000, 34.0
5.37000, 57.0
5.38000, 35.0
5.39000, 41.0
5.40000, 39.0
5.41000, 47.0
5.42000, 37.0
5.43000, 36.0
5.44000, 34.0
5.45000, 41.0
5.46000, 44.0
5.47000, 22.0
5.48000, 43.0
5.49000, 43.0
5.50000, 37.0
5.51000, 33.0
5.52000, 39.0
5.53000, 38.0
5.54000, 26.0
5.55000, 44.0
5.56000, 38.0
5.57000, 24.0
5.58000, 28.0
5.59000, 27.0
5.60000, 27.0
5.61000, 38.0
5.62000, 36.0
5.63000, 27.0
5.64000, 33.0
5.65000, 26.0
5.66000, 28.0
5.67000, 42.0
5.68000, 40.0
5.69000, 43.0
5.70000, 27.0
5.71000, 31.0
5.72000, 28.0
5.73000, 28.0
5.74000, 35.0
5.75000, 34.0
5.76000, 28.0
5.77000, 27.0
5.78000, 20.0
5.79000, 37.0
5.80000, 23.0
5.81000, 28.0
5.82000, 21.0
5.83000, 28.0
5.84000, 33.0
5.85000, 20.0
5.86000, 30.0
5.87000, 30.0
5.88000, 20.0
5.89000, 23.0
5.90000, 23.0
5.91000, 22.0
5.92000, 20.0
5.93000, 14.0
5.94000, 29.0
5.95000, 17.0
5.96000, 21.0
5.97000, 21.0
5.98000, 31.0
5.99000, 24.0
6.00000, 20.0
6.01000, 25.0
6.02000, 19.0
6.03000, 25.0
6.04000, 19.0
6.05000, 20.0
6.06000, 17.0
6.07000, 27.0
6.08000, 15.0
6.09000, 27.0
6.10000, 18.0
6.11000, 21.0
6.12000, 18.0
6.13000, 21.0
6.14000, 29.0
6.15000, 14.0
6.16000, 20.0
6.17000, 22.0
6.18000, 12.0
6.19000, 24.0
6.20000, 21.0
6.21000, 15.0
6.22000, 17.0
6.23000, 12.0
6.24000, 18.0
6.25000, 18.0
6.26000, 17.0
6.27000, 21.0
6.28000, 16.0
6.29000, 13.0
6.30000, 18.0
6.31000, 17.0
6.32000, 16.0
6.33000, 18.0
6.34000, 13.0
6.35000, 16.0
6.36000, 18.0
6.37000, 19.0
6.38000, 20.0
6.39000, 18.0
6.40000, 14.0
6.41000, 10.0
6.42000, 10.0
6.43000, 14.0
6.44000, 13.0
6.45000, 12.0
6.46000, 20.0
6.47000, 10.0
6.48000, 10.0
6.49000, 14.0
6.50000, 12.0
6.51000, 10.0
6.52000, 12.0
6.53000, 12.0
6.54000, 13.0
6.55000, 9.0
6.56000, 9.0
6.57000, 9.0
6.58000, 8.0
6.59000, 10.0
6.60000, 10.0
6.61000, 7.0
6.62000, 7.0
6.63000, 9.0
6.64000, 6.0
6.65000, 10.0
6.66000, 11.0
6.67000, 6.0
6.68000, 6.0
6.69000, 6.0
6.70000, 9.0
6.71000, 3.0
6.72000, 6.0
6.73000, 2.0
6.74000, 4.0
6.75000, 8.0
6.76000, 9.0
6.77000, 5.0
6.78000, 5.0
6.79000, 5.0
6.80000, 5.0
6.81000, 8.0
6.82000, 3.0
6.83000, 5.0
6.84000, 7.0
6.85000, 2.0
6.86000, 9.0
6.87000, 2.0
6.88000, 5.0
6.89000, 7.0
6.90000, 5.0
6.91000, 7.0
6.92000, 2.0
6.93000, 3.0
6.94000, 8.0
6.95000, 4.0
6.96000, 5.0
6.97000, 5.0
6.98000, 2.0
6.99000, 0.0
7.00000, 0.0
7.01000, 2.0
7.02000, 1.0
7.03000, 1.0
7.04000, 2.0
7.05000, 2.0
7.06000, 1.0
7.07000, 0.0
7.08000, 0.0
7.09000, 0.0
7.10000, 0.0
7.11000, 2.0
7.12000, 1.0
7.13000, 1.0
7.14000, 0.0
7.15000, 0.0
7.16000, 0.0
7.17000, 1.0
7.18000, 0.0
7.19000, 0.0
7.20000, 0.0
7.21000, 0.0
7.22000, 0.0
7.23000, 1.0
7.24000, 0.0
7.25000, 0.0
7.26000, 0.0
7.27000, 0.0
7.28000, 1.0
7.29000, 0.0
7.30000, 0.0
7.31000, 0.0
7.32000, 0.0
7.33000, 1.0
7.34000, 0.0
7.35000, 0.0
7.36000, 0.0
7.37000, 1.0
7.38000, 0.0
7.39000, 0.0
7.40000, 0.0
7.41000, 1.0
7.42000, 0.0
7.43000, 0.0
7.44000, 0.0
7.45000, 0.0
7.46000, 1.0
7.47000, 1.0
7.48000, 0.0
7.49000, 1.0
7.50000, 1.0
7.51000, 0.0
7.52000, 0.0
7.53000, 0.0
7.54000, 0.0
7.55000, 0.0
7.56000, 0.0
7.57000, 2.0
7.58000, 0.0
7.59000, 0.0
7.60000, 0.0
7.61000, 1.0
7.62000, 1.0
7.63000, 0.0
7.64000, 1.0
7.65000, 0.0
7.66000, 0.0
7.67000, 0.0
7.68000, 0.0
7.69000, 0.0
7.70000, 0.0
7.71000, 0.0
7.72000, 0.0
7.73000, 0.0
7.74000, 0.0
7.75000, 0.0
7.76000, 1.0
7.77000, 0.0
7.78000, 0.0
7.79000, 0.0
7.80000, 0.0
7.81000, 0.0
7.82000, 0.0
7.83000, 0.0
7.84000, 0.0
7.85000, 0.0
7.86000, 1.0
7.87000, 0.0
7.88000, 0.0
7.89000, 0.0
7.90000, 1.0
7.91000, 0.0
7.92000, 0.0
7.93000, 0.0
7.94000, 0.0
7.95000, 0.0
7.96000, 0.0
7.97000, 0.0
7.98000, 0.0
7.99000, 0.0
8.00000, 0.0
8.01000, 0.0
8.02000, 0.0
8.03000, 0.0
8.04000, 0.0
8.05000, 1.0
8.06000, 0.0
8.07000, 1.0
8.08000, 0.0
8.09000, 0.0
8.10000, 0.0
8.11000, 0.0
8.12000, 0.0
8.13000, 0.0
8.14000, 0.0
8.15000, 0.0
8.16000, 0.0
8.17000, 0.0
8.18000, 0.0
8.19000, 0.0
8.20000, 0.0
8.21000, 0.0
8.22000, 0.0
8.23000, 1.0
8.24000, 0.0
8.25000, 0.0
8.26000, 1.0
8.27000, 0.0
8.28000, 0.0
8.29000, 0.0
8.30000, 0.0
8.31000, 0.0
8.32000, 0.0
8.33000, 0.0
8.34000, 0.0
8.35000, 1.0
8.36000, 0.0
8.37000, 0.0
8.38000, 0.0
8.39000, 0.0
8.40000, 1.0
8.41000, 0.0
8.42000, 0.0
8.43000, 0.0
8.44000, 0.0
8.45000, 1.0
8.46000, 0.0
8.47000, 0.0
8.48000, 0.0
8.49000, 0.0
8.50000, 0.0
8.51000, 0.0
8.52000, 0.0
8.53000, 0.0
8.54000, 0.0
8.55000, 0.0
8.56000, 0.0
8.57000, 0.0
8.58000, 0.0
8.59000, 1.0
8.60000, 0.0
8.61000, 0.0
8.62000, 0.0
8.63000, 0.0
8.64000, 0.0
8.65000, 0.0
8.66000, 0.0
8.67000, 0.0
8.68000, 0.0
8.69000, 0.0
8.70000, 0.0
8.71000, 0.0
8.72000, 0.0
8.73000, 0.0
8.74000, 0.0
8.75000, 0.0
8.76000, 0.0
8.77000, 0.0
8.78000, 0.0
8.79000, 0.0
8.80000, 0.0
8.81000, 0.0
8.82000, 0.0
8.83000, 0.0
8.84000, 0.0
8.85000, 0.0
8.86000, 0.0
8.87000, 0.0
8.88000, 0.0
8.89000, 0.0
8.90000, 0.0
8.91000, 0.0
8.92000, 0.0
8.93000, 0.0
8.94000, 0.0
8.95000, 0.0
8.96000, 0.0
8.97000, 0.0
8.98000, 0.0
8.99000, 0.0
9.00000, 0.0
9.01000, 0.0
9.02000, 0.0
9.03000, 0.0
9.04000, 0.0
9.05000, 0.0
9.06000, 0.0
9.07000, 0.0
9.08000, 0.0
9.09000, 0.0
9.10000, 0.0
9.11000, 0.0
9.12000, 0.0
9.13000, 0.0
9.14000, 0.0
9.15000, 0.0
9.16000, 0.0
9.17000, 0.0
9.18000, 0.0
9.19000, 0.0
9.20000, 0.0
9.21000, 0.0
9.22000, 0.0
9.23000, 0.0
9.24000, 0.0
9.25000, 0.0
9.26000, 0.0
9.27000, 0.0
9.28000, 0.0
9.29000, 0.0
9.30000, 0.0
9.31000, 0.0
9.32000, 0.0
9.33000, 0.0
9.34000, 0.0
9.35000, 0.0
9.36000, 0.0
9.37000, 0.0
9.38000, 0.0
9.39000, 0.0
9.40000, 0.0
9.41000, 0.0
9.42000, 0.0
9.43000, 0.0
9.44000, 0.0
9.45000, 0.0
9.46000, 0.0
9.47000, 0.0
9.48000, 0.0
9.49000, 0.0
9.50000, 0.0
9.51000, 0.0
9.52000, 0.0
9.53000, 0.0
9.54000, 0.0
9.55000, 0.0
9.56000, 0.0
9.57000, 0.0
9.58000, 0.0
9.59000, 0.0
9.60000, 0.0
9.61000, 0.0
9.62000, 0.0
9.63000, 0.0
9.64000, 0.0
9.65000, 0.0
9.66000, 0.0
9.67000, 0.0
9.68000, 0.0
9.69000, 0.0
9.70000, 0.0
9.71000, 0.0
9.72000, 0.0
9.73000, 0.0
9.74000, 0.0
9.75000, 0.0
9.76000, 0.0
9.77000, 0.0
9.78000, 0.0
9.79000, 0.0
9.80000, 0.0
9.81000, 0.0
9.82000, 0.0
9.83000, 0.0
9.84000, 0.0
9.85000, 0.0
9.86000, 0.0
9.87000, 0.0
9.88000, 0.0
9.89000, 0.0
9.90000, 0.0
9.91000, 0.0
9.92000, 0.0
9.93000, 0.0
9.94000, 0.0
9.95000, 0.0
9.96000, 0.0
9.97000, 0.0
9.98000, 0.0
9.99000, 0.0
10.00000, 0.0
10.01000, 0.0
10.02000, 0.0
10.03000, 0.0
10.04000, 0.0
10.05000, 0.0
10.06000, 0.0
10.07000, 0.0
10.08000, 0.0
10.09000, 0.0
10.10000, 0.0
10.11000, 0.0
10.12000, 1.0
10.13000, 0.0
10.13500, 0.0
#ENDOFDATA   :