File: data/Sirion/C-std-7kV.msa
#FORMAT      : EMSA/MAS Spectral Data File
#VERSION     : 1.0
#TITLE       : C-7kV-std
#DATE        : 01-Jun-2017
#TIME        : 07:00
#OWNER       : John Minter
#NPOINTS     : 2048
#NCOLUMNS    : 1
#XUNITS      : eV
#YUNITS      : counts
#DATATYPE    : Y
#XPERCHAN    : 5.00333
#OFFSET      : -103.613
#BEAMKV      : 7
#PROBECUR    : 2.288
#SIGNALTYPE  : EDS
#ELEVANGLE   : 35
#AZIMANGLE   : 225
#LIVETIME    : 300
#REALTIME    : 338.08
#TAUWIND     : 0
#TDEADLYR    : 0
#TACTLYR     : 0.045
#TALWIND     : 0.003
#CHOFFSET    : 0.0
#XLABEL      : Energy (eV)
#YLABEL      : Counts
#EDSDET      : SDUTW
##SPECIMEN   : C-7kV-std
##D2STDCMP   : C,(C:100.0),2.1
##DET_HASH   : beb453cd-0419-e61a-0579-19c0f29e56e8
##CALIB_HASH : 437bace4-1a7e-9a72-d2b5-cbfa7f4a1c79
##SAMPLE     : <BulkSample id="1">\n<mOrientation id="2">\n<double>0.0</double>\n<double>0.0</double>\n<double>-1.0</double>\n</mOrientation>\n</BulkSample>
#SPECTRUM    :
0,
0,
1,
3,
10,
60,
215,
696,
1480,
2676,
4095,
5179,
5980,
6597,
7092,
6767,
5686,
4046,
2911,
2388,
2164,
2152,
2082,
2157,
2143,
2341,
2567,
2870,
3367,
4502,
6750,
12143,
23608,
46905,
86333,
141450,
199312,
239405,
243914,
209956,
153187,
94682,
49273,
21385,
8181,
2761,
999,
521,
440,
437,
429,
441.103,
456.3131,
471.523,
486.733,
501.9435,
517.154,
532.364,
547.574,
562.784,
577.994,
593.204,
608.414,
623.625,
638.835,
654.045,
669.255,
684.465,
699.675,
714.8854,
730.096,
745.306,
760.516,
775.726,
790.936,
806.146,
816,
825,
837,
883,
890,
885,
934,
902,
941,
898,
979,
947,
986,
969,
973,
1002,
989,
1012,
1003,
985,
988,
1000,
975,
998,
1025,
992,
986,
1021,
1002.85,
999.454,
996.059,
992.665,
989.27,
985.875,
982.481,
979.086,
975.691,
972.297,
968.9018,
965.507,
962.112,
958.718,
955.323,
987,
952,
859,
924,
978,
923,
901,
916,
886,
894,
874,
913,
830,
872,
870,
886,
868,
826,
815,
818,
798,
818,
838,
780,
811,
808,
800,
749,
771,
770,
751,
738,
711,
719,
757,
724,
720,
712,
681,
718,
679,
689,
694,
656,
698,
671,
653,
640,
617,
607,
636,
602,
563,
580,
607,
589,
577,
592,
562,
555,
584,
539,
579,
592,
576,
576,
543,
542,
539,
542,
546,
500,
512,
516,
512,
490,
483,
473,
485,
461,
455,
449,
455,
432,
423,
452,
424,
444,
454,
404,
409,
423,
425,
437,
393,
414,
406,
416,
386,
390,
411,
397,
396,
375,
378,
389,
373,
383,
360,
381,
335,
333,
357,
358,
343,
344,
349,
370,
363,
379,
356,
356,
364,
336,
342,
338,
362,
323,
326,
297,
334,
334,
287,
295,
320,
316,
307,
298,
313,
291,
306,
280,
288,
296,
299,
296,
266,
284,
289,
265,
293,
278,
276,
299,
269,
266,
266,
282,
260,
241,
261,
278,
234,
246,
253,
232,
232,
215,
219,
218,
236,
228,
226,
225,
229,
225,
214,
222,
203,
221,
225,
213,
208,
222,
201,
209,
216,
242,
207,
201,
214,
203,
200,
191,
191,
188,
211,
207,
192,
190,
188,
187,
199,
192,
189,
184,
192,
195,
185,
182,
173,
172,
164,
185,
177,
181,
188,
177,
177,
178,
174,
175,
183,
181,
171,
177,
178,
149,
160,
154,
156,
164,
153,
137,
137,
169,
143,
154,
149,
136,
147,
143,
150,
144,
142,
135,
141,
141,
152,
143,
129,
149,
160,
127,
154,
130,
131,
144,
128,
153,
122,
137,
122,
129,
123,
126,
120,
95,
106,
134,
127,
120,
102,
107,
102,
110,
119,
106,
129,
115,
104,
109,
126,
132,
116,
104,
115,
105,
112,
116,
111,
94,
98,
116,
106,
101,
101,
95,
98,
117,
98,
98,
89,
84,
92,
94,
78,
86,
105,
107,
97,
88,
92,
94,
86,
81,
90,
86,
86,
81,
84,
81,
92,
77,
84,
84,
63,
79,
70,
78,
71,
75,
73,
76,
73,
76,
68,
73,
69,
72,
64,
79,
77,
61,
69,
73,
75,
63,
64,
77,
63,
78,
63,
66,
80,
63,
71,
64,
61,
53,
65,
52,
66,
62,
60,
64,
57,
64,
61,
54,
64,
62,
66,
62,
51,
53,
50,
57,
66,
43,
49,
52,
51,
52,
48,
46,
58,
48,
64,
51,
49,
55,
50,
51,
45,
42,
45,
62,
43,
47,
49,
55,
41,
47,
42,
39,
41,
32,
47,
42,
37,
39,
47,
47,
37,
45,
41,
44,
47,
39,
42,
50,
29,
35,
32,
32,
35,
43,
35,
28,
39,
34,
33,
30,
31,
36,
31,
27,
35,
41,
38,
32,
37,
28,
28,
37,
28,
33,
32,
36,
28,
28,
30,
27,
34,
36,
24,
33,
25,
22,
24,
25,
24,
31,
26,
29,
30,
26,
28,
27,
23,
23,
21,
35,
30,
21,
28,
15,
22,
16,
24,
20,
16,
28,
18,
22,
19,
21,
17,
14,
24,
22,
21,
22,
20,
16,
17,
19,
22,
15,
18,
17,
13,
20,
18,
13,
15,
15,
12,
13,
11,
16,
14,
19,
16,
18,
7,
17,
11,
10,
10,
20,
18,
14,
10,
11,
6,
14,
14,
11,
14,
9,
9,
15,
9,
2,
10,
16,
11,
15,
7,
16,
5,
6,
12,
6,
9,
7,
10,
8,
5,
7,
12,
9,
6,
5,
10,
8,
5,
6,
6,
6,
6,
7,
7,
6,
6,
3,
8,
3,
3,
7,
3,
4,
2,
4,
1,
3,
5,
2,
2,
0,
4,
4,
1,
0,
3,
3,
2,
2,
1,
1,
1,
1,
1,
2,
0,
0,
0,
0,
0,
1,
1,
0,
0,
0,
0,
0,
0,
0,
0,
0,
0,
0,
0,
0,
0,
0,
0,
0,
0,
0,
0,
0,
0,
0,
0,
0,
0,
0,
0,
0,
0,
0,
0,
0,
0,
0,
0,
0,
0,
0,
0,
0,
0,
0,
0,
0,
0,
0,
0,
0,
0,
0,
0,
0,
0,
0,
0,
0,
0,
0,
0,
0,
0,
0,
0,
0,
0,
0,
0,
0,
0,
0,
0,
0,
0,
0,
0,
0,
0,
0,
0,
0,
0,
0,
0,
0,
0,
0,
0,
0,
0,
0,
0,
0,
0,
0,
0,
0,
0,
0,
0,
0,
0,
0,
0,
0,
0,
0,
0,
1,
0,
0,
0,
0,
0,
0,
0,
0,
0,
0,
0,
0,
0,
0,
0,
0,
0,
0,
0,
0,
0,
0,
0,
0,
0,
0,
0,
0,
0,
0,
0,
0,
0,
0,
0,
0,
0,
0,
0,
0,
0,
0,
0,
0,
0,
0,
0,
0,
0,
0,
0,
0,
0,
0,
0,
0,
0,
0,
0,
0,
0,
0,
0,
0,
0,
0,
0,
0,
0,
0,
0,
0,
0,
0,
0,
0,
0,
0,
0,
0,
0,
0,
0,
0,
0,
0,
0,
0,
0,
0,
0,
0,
0,
0,
0,
0,
0,
0,
0,
0,
0,
0,
0,
0,
0,
0,
0,
0,
0,
0,
0,
0,
0,
0,
0,
0,
0,
0,
0,
0,
0,
0,
0,
0,
0,
0,
0,
0,
0,
0,
0,
0,
0,
0,
0,
0,
0,
0,
0,
0,
0,
0,
0,
0,
0,
0,
0,
0,
0,
0,
0,
0,
0,
0,
0,
0,
0,
0,
0,
0,
0,
0,
0,
0,
0,
0,
0,
0,
0,
0,
0,
0,
0,
0,
0,
0,
0,
0,
1,
0,
0,
0,
0,
0,
0,
0,
0,
0,
0,
0,
0,
0,
0,
0,
#ENDOFDATA   :