File: data/Sirion/Cu-2017-12-14-5eV-ch-2K.msa
#FORMAT      : EMSA/MAS Spectral Data File
#VERSION     : 1.0
#TITLE       : Cu-2017-12-14-5eV-ch-2K
#DATE        : 14-DEC-2017
#TIME        : 14:12
#OWNER       : John Minter
#NPOINTS     : 2048.0
#NCOLUMNS    : 1.0
#XUNITS      : keV
#YUNITS      : counts
#DATATYPE    : XY
#XPERCHAN    : 0.005
#OFFSET      : -0.1
#SIGNALTYPE  : EDS
#CHOFFSET    : 20.0
#LIVETIME    : 100.0
#REALTIME    : 128.559
#BEAMKV      : 20.0
#PROBECUR    : 1.83
#MAGCAM      : 8000.0
#XTILTSTGE   : 0.0
#AZIMANGLE   : 0.0
#ELEVANGLE   : 35.0
#XPOSITION mm: 0.9090
#YPOSITION mm: 0.0860
#ZPOSITION mm: 4.9970
##OXINSTPT   : 4
##OXINSTSTROB: 48.28
##OXINSTELEMS: 29,6,8,13
##OXINSTLABEL: 29, 8.048, Cu
##OXINSTLABEL: 29, 8.905, Cu
##OXINSTLABEL: 29, 0.930, Cu
##OXINSTLABEL: 29, 0.832, Cu
##OXINSTLABEL: 29, 0.811, Cu
##OXINSTLABEL: 6, 0.277, C
##OXINSTLABEL: 8, 0.525, O
##OXINSTLABEL: 13, 1.487, Al
#SPECTRUM    : Spectral Data Starts Here
-0.10000, 0.0
-0.09000, 0.0
-0.08000, 0.0
-0.07000, 2.0
-0.06000, 6.0
-0.05000, 29.0
-0.04000, 92.0
-0.03000, 241.0
-0.02000, 542.0
-0.01000, 979.0
0.00000, 1512.0
0.01000, 1988.0
0.02000, 2315.0
0.03000, 2610.0
0.04000, 2847.0
0.05000, 2507.0
0.06000, 1964.0
0.07000, 1192.0
0.08000, 673.0
0.09000, 421.0
0.10000, 306.0
0.11000, 264.0
0.12000, 246.0
0.13000, 256.0
0.14000, 209.0
0.15000, 220.0
0.16000, 226.0
0.17000, 203.0
0.18000, 226.0
0.19000, 241.0
0.20000, 238.0
0.21000, 261.0
0.22000, 314.0
0.23000, 367.0
0.24000, 482.0
0.25000, 621.0
0.26000, 774.0
0.27000, 832.0
0.28000, 867.0
0.29000, 736.0
0.30000, 605.0
0.31000, 451.0
0.32000, 337.0
0.33000, 257.0
0.34000, 282.0
0.35000, 278.0
0.36000, 290.0
0.37000, 322.0
0.38000, 345.0
0.39000, 347.0
0.40000, 398.0
0.41000, 404.0
0.42000, 467.0
0.43000, 495.0
0.44000, 499.0
0.45000, 511.0
0.46000, 587.0
0.47000, 625.0
0.48000, 730.0
0.49000, 814.0
0.50000, 886.0
0.51000, 1020.0
0.52000, 1116.0
0.53000, 1072.0
0.54000, 1001.0
0.55000, 937.0
0.56000, 829.0
0.57000, 796.0
0.58000, 770.0
0.59000, 783.0
0.60000, 844.0
0.61000, 889.0
0.62000, 909.0
0.63000, 967.0
0.64000, 991.0
0.65000, 1076.0
0.66000, 1147.0
0.67000, 1213.0
0.68000, 1281.0
0.69000, 1319.0
0.70000, 1351.0
0.71000, 1464.0
0.72000, 1545.0
0.73000, 1692.0
0.74000, 1927.0
0.75000, 2331.0
0.76000, 3085.0
0.77000, 3890.0
0.78000, 5263.0
0.79000, 6758.0
0.80000, 8155.0
0.81000, 9142.0
0.82000, 9343.0
0.83000, 8990.0
0.84000, 8261.0
0.85000, 7931.0
0.86000, 8947.0
0.87000, 12273.0
0.88000, 19510.0
0.89000, 30560.0
0.90000, 45171.0
0.91000, 61027.0
0.92000, 73843.0
0.93000, 79529.0
0.94000, 77916.0
0.95000, 67072.0
0.96000, 51762.0
0.97000, 36140.0
0.98000, 22929.0
0.99000, 12967.0
1.00000, 7101.0
1.01000, 3541.0
1.02000, 1985.0
1.03000, 1173.0
1.04000, 820.0
1.05000, 612.0
1.06000, 541.0
1.07000, 506.0
1.08000, 433.0
1.09000, 422.0
1.10000, 405.0
1.11000, 382.0
1.12000, 403.0
1.13000, 395.0
1.14000, 379.0
1.15000, 367.0
1.16000, 384.0
1.17000, 402.0
1.18000, 412.0
1.19000, 412.0
1.20000, 405.0
1.21000, 442.0
1.22000, 447.0
1.23000, 462.0
1.24000, 450.0
1.25000, 451.0
1.26000, 473.0
1.27000, 468.0
1.28000, 455.0
1.29000, 483.0
1.30000, 493.0
1.31000, 486.0
1.32000, 517.0
1.33000, 502.0
1.34000, 553.0
1.35000, 526.0
1.36000, 510.0
1.37000, 534.0
1.38000, 538.0
1.39000, 555.0
1.40000, 546.0
1.41000, 582.0
1.42000, 582.0
1.43000, 648.0
1.44000, 649.0
1.45000, 764.0
1.46000, 868.0
1.47000, 892.0
1.48000, 971.0
1.49000, 982.0
1.50000, 965.0
1.51000, 943.0
1.52000, 898.0
1.53000, 804.0
1.54000, 767.0
1.55000, 704.0
1.56000, 626.0
1.57000, 656.0
1.58000, 639.0
1.59000, 628.0
1.60000, 668.0
1.61000, 633.0
1.62000, 651.0
1.63000, 643.0
1.64000, 621.0
1.65000, 632.0
1.66000, 658.0
1.67000, 661.0
1.68000, 697.0
1.69000, 671.0
1.70000, 703.0
1.71000, 706.0
1.72000, 702.0
1.73000, 738.0
1.74000, 756.0
1.75000, 742.0
1.76000, 783.0
1.77000, 769.0
1.78000, 776.0
1.79000, 802.0
1.80000, 793.0
1.81000, 793.0
1.82000, 788.0
1.83000, 883.0
1.84000, 911.0
1.85000, 914.0
1.86000, 996.0
1.87000, 1008.0
1.88000, 931.0
1.89000, 893.0
1.90000, 918.0
1.91000, 865.0
1.92000, 830.0
1.93000, 784.0
1.94000, 746.0
1.95000, 769.0
1.96000, 742.0
1.97000, 712.0
1.98000, 733.0
1.99000, 726.0
2.00000, 800.0
2.01000, 744.0
2.02000, 752.0
2.03000, 715.0
2.04000, 738.0
2.05000, 733.0
2.06000, 774.0
2.07000, 745.0
2.08000, 781.0
2.09000, 795.0
2.10000, 779.0
2.11000, 760.0
2.12000, 776.0
2.13000, 790.0
2.14000, 753.0
2.15000, 794.0
2.16000, 738.0
2.17000, 797.0
2.18000, 773.0
2.19000, 808.0
2.20000, 799.0
2.21000, 835.0
2.22000, 796.0
2.23000, 833.0
2.24000, 851.0
2.25000, 836.0
2.26000, 835.0
2.27000, 849.0
2.28000, 881.0
2.29000, 866.0
2.30000, 861.0
2.31000, 837.0
2.32000, 850.0
2.33000, 864.0
2.34000, 864.0
2.35000, 842.0
2.36000, 876.0
2.37000, 859.0
2.38000, 855.0
2.39000, 879.0
2.40000, 820.0
2.41000, 863.0
2.42000, 877.0
2.43000, 832.0
2.44000, 905.0
2.45000, 849.0
2.46000, 885.0
2.47000, 860.0
2.48000, 882.0
2.49000, 844.0
2.50000, 861.0
2.51000, 874.0
2.52000, 892.0
2.53000, 868.0
2.54000, 873.0
2.55000, 853.0
2.56000, 830.0
2.57000, 887.0
2.58000, 894.0
2.59000, 876.0
2.60000, 866.0
2.61000, 868.0
2.62000, 849.0
2.63000, 886.0
2.64000, 896.0
2.65000, 882.0
2.66000, 907.0
2.67000, 865.0
2.68000, 876.0
2.69000, 888.0
2.70000, 869.0
2.71000, 868.0
2.72000, 868.0
2.73000, 877.0
2.74000, 889.0
2.75000, 890.0
2.76000, 867.0
2.77000, 887.0
2.78000, 880.0
2.79000, 872.0
2.80000, 853.0
2.81000, 836.0
2.82000, 853.0
2.83000, 854.0
2.84000, 861.0
2.85000, 867.0
2.86000, 882.0
2.87000, 880.0
2.88000, 860.0
2.89000, 868.0
2.90000, 868.0
2.91000, 859.0
2.92000, 851.0
2.93000, 871.0
2.94000, 878.0
2.95000, 837.0
2.96000, 876.0
2.97000, 862.0
2.98000, 875.0
2.99000, 828.0
3.00000, 851.0
3.01000, 864.0
3.02000, 844.0
3.03000, 838.0
3.04000, 840.0
3.05000, 870.0
3.06000, 865.0
3.07000, 840.0
3.08000, 855.0
3.09000, 841.0
3.10000, 867.0
3.11000, 871.0
3.12000, 846.0
3.13000, 842.0
3.14000, 872.0
3.15000, 829.0
3.16000, 879.0
3.17000, 834.0
3.18000, 836.0
3.19000, 849.0
3.20000, 831.0
3.21000, 837.0
3.22000, 844.0
3.23000, 829.0
3.24000, 868.0
3.25000, 842.0
3.26000, 845.0
3.27000, 823.0
3.28000, 850.0
3.29000, 829.0
3.30000, 858.0
3.31000, 830.0
3.32000, 842.0
3.33000, 801.0
3.34000, 873.0
3.35000, 841.0
3.36000, 791.0
3.37000, 841.0
3.38000, 842.0
3.39000, 801.0
3.40000, 839.0
3.41000, 852.0
3.42000, 806.0
3.43000, 847.0
3.44000, 814.0
3.45000, 794.0
3.46000, 822.0
3.47000, 820.0
3.48000, 837.0
3.49000, 812.0
3.50000, 755.0
3.51000, 795.0
3.52000, 766.0
3.53000, 819.0
3.54000, 792.0
3.55000, 798.0
3.56000, 818.0
3.57000, 813.0
3.58000, 779.0
3.59000, 812.0
3.60000, 826.0
3.61000, 779.0
3.62000, 781.0
3.63000, 794.0
3.64000, 797.0
3.65000, 783.0
3.66000, 801.0
3.67000, 780.0
3.68000, 774.0
3.69000, 773.0
3.70000, 804.0
3.71000, 792.0
3.72000, 778.0
3.73000, 775.0
3.74000, 781.0
3.75000, 762.0
3.76000, 777.0
3.77000, 774.0
3.78000, 799.0
3.79000, 729.0
3.80000, 771.0
3.81000, 742.0
3.82000, 747.0
3.83000, 784.0
3.84000, 762.0
3.85000, 707.0
3.86000, 716.0
3.87000, 746.0
3.88000, 737.0
3.89000, 729.0
3.90000, 717.0
3.91000, 728.0
3.92000, 757.0
3.93000, 751.0
3.94000, 715.0
3.95000, 723.0
3.96000, 744.0
3.97000, 770.0
3.98000, 744.0
3.99000, 710.0
4.00000, 742.0
4.01000, 720.0
4.02000, 712.0
4.03000, 714.0
4.04000, 733.0
4.05000, 712.0
4.06000, 703.0
4.07000, 693.0
4.08000, 680.0
4.09000, 718.0
4.10000, 650.0
4.11000, 718.0
4.12000, 683.0
4.13000, 715.0
4.14000, 700.0
4.15000, 700.0
4.16000, 684.0
4.17000, 711.0
4.18000, 684.0
4.19000, 720.0
4.20000, 696.0
4.21000, 684.0
4.22000, 682.0
4.23000, 718.0
4.24000, 675.0
4.25000, 689.0
4.26000, 681.0
4.27000, 692.0
4.28000, 690.0
4.29000, 689.0
4.30000, 708.0
4.31000, 652.0
4.32000, 655.0
4.33000, 677.0
4.34000, 664.0
4.35000, 656.0
4.36000, 647.0
4.37000, 647.0
4.38000, 648.0
4.39000, 661.0
4.40000, 666.0
4.41000, 699.0
4.42000, 627.0
4.43000, 660.0
4.44000, 670.0
4.45000, 675.0
4.46000, 659.0
4.47000, 639.0
4.48000, 619.0
4.49000, 629.0
4.50000, 658.0
4.51000, 648.0
4.52000, 633.0
4.53000, 635.0
4.54000, 646.0
4.55000, 612.0
4.56000, 635.0
4.57000, 585.0
4.58000, 638.0
4.59000, 610.0
4.60000, 587.0
4.61000, 659.0
4.62000, 597.0
4.63000, 649.0
4.64000, 636.0
4.65000, 625.0
4.66000, 611.0
4.67000, 609.0
4.68000, 618.0
4.69000, 627.0
4.70000, 593.0
4.71000, 638.0
4.72000, 609.0
4.73000, 612.0
4.74000, 597.0
4.75000, 622.0
4.76000, 639.0
4.77000, 610.0
4.78000, 595.0
4.79000, 588.0
4.80000, 634.0
4.81000, 606.0
4.82000, 583.0
4.83000, 623.0
4.84000, 604.0
4.85000, 599.0
4.86000, 621.0
4.87000, 596.0
4.88000, 571.0
4.89000, 587.0
4.90000, 618.0
4.91000, 581.0
4.92000, 574.0
4.93000, 589.0
4.94000, 597.0
4.95000, 612.0
4.96000, 589.0
4.97000, 611.0
4.98000, 605.0
4.99000, 596.0
5.00000, 574.0
5.01000, 563.0
5.02000, 561.0
5.03000, 565.0
5.04000, 548.0
5.05000, 580.0
5.06000, 577.0
5.07000, 572.0
5.08000, 587.0
5.09000, 559.0
5.10000, 597.0
5.11000, 527.0
5.12000, 581.0
5.13000, 597.0
5.14000, 553.0
5.15000, 570.0
5.16000, 563.0
5.17000, 576.0
5.18000, 566.0
5.19000, 580.0
5.20000, 566.0
5.21000, 550.0
5.22000, 567.0
5.23000, 560.0
5.24000, 565.0
5.25000, 530.0
5.26000, 532.0
5.27000, 552.0
5.28000, 537.0
5.29000, 525.0
5.30000, 568.0
5.31000, 561.0
5.32000, 581.0
5.33000, 523.0
5.34000, 537.0
5.35000, 532.0
5.36000, 546.0
5.37000, 531.0
5.38000, 547.0
5.39000, 523.0
5.40000, 535.0
5.41000, 511.0
5.42000, 533.0
5.43000, 571.0
5.44000, 550.0
5.45000, 512.0
5.46000, 534.0
5.47000, 541.0
5.48000, 531.0
5.49000, 519.0
5.50000, 518.0
5.51000, 529.0
5.52000, 481.0
5.53000, 547.0
5.54000, 503.0
5.55000, 515.0
5.56000, 511.0
5.57000, 529.0
5.58000, 510.0
5.59000, 502.0
5.60000, 506.0
5.61000, 529.0
5.62000, 492.0
5.63000, 518.0
5.64000, 499.0
5.65000, 521.0
5.66000, 508.0
5.67000, 510.0
5.68000, 483.0
5.69000, 508.0
5.70000, 508.0
5.71000, 472.0
5.72000, 501.0
5.73000, 512.0
5.74000, 508.0
5.75000, 449.0
5.76000, 484.0
5.77000, 501.0
5.78000, 475.0
5.79000, 494.0
5.80000, 483.0
5.81000, 476.0
5.82000, 471.0
5.83000, 504.0
5.84000, 481.0
5.85000, 477.0
5.86000, 487.0
5.87000, 464.0
5.88000, 470.0
5.89000, 460.0
5.90000, 476.0
5.91000, 461.0
5.92000, 481.0
5.93000, 455.0
5.94000, 493.0
5.95000, 442.0
5.96000, 473.0
5.97000, 497.0
5.98000, 482.0
5.99000, 481.0
6.00000, 462.0
6.01000, 475.0
6.02000, 448.0
6.03000, 455.0
6.04000, 500.0
6.05000, 496.0
6.06000, 454.0
6.07000, 442.0
6.08000, 461.0
6.09000, 472.0
6.10000, 471.0
6.11000, 443.0
6.12000, 435.0
6.13000, 485.0
6.14000, 453.0
6.15000, 452.0
6.16000, 477.0
6.17000, 451.0
6.18000, 482.0
6.19000, 437.0
6.20000, 444.0
6.21000, 438.0
6.22000, 452.0
6.23000, 461.0
6.24000, 433.0
6.25000, 497.0
6.26000, 486.0
6.27000, 476.0
6.28000, 494.0
6.29000, 492.0
6.30000, 480.0
6.31000, 524.0
6.32000, 506.0
6.33000, 456.0
6.34000, 445.0
6.35000, 446.0
6.36000, 457.0
6.37000, 460.0
6.38000, 491.0
6.39000, 445.0
6.40000, 443.0
6.41000, 405.0
6.42000, 393.0
6.43000, 432.0
6.44000, 427.0
6.45000, 408.0
6.46000, 448.0
6.47000, 444.0
6.48000, 411.0
6.49000, 414.0
6.50000, 421.0
6.51000, 415.0
6.52000, 412.0
6.53000, 425.0
6.54000, 393.0
6.55000, 393.0
6.56000, 429.0
6.57000, 395.0
6.58000, 421.0
6.59000, 434.0
6.60000, 432.0
6.61000, 455.0
6.62000, 378.0
6.63000, 390.0
6.64000, 409.0
6.65000, 402.0
6.66000, 414.0
6.67000, 397.0
6.68000, 416.0
6.69000, 434.0
6.70000, 386.0
6.71000, 407.0
6.72000, 427.0
6.73000, 414.0
6.74000, 402.0
6.75000, 409.0
6.76000, 366.0
6.77000, 403.0
6.78000, 352.0
6.79000, 402.0
6.80000, 381.0
6.81000, 419.0
6.82000, 395.0
6.83000, 386.0
6.84000, 377.0
6.85000, 375.0
6.86000, 387.0
6.87000, 398.0
6.88000, 394.0
6.89000, 366.0
6.90000, 384.0
6.91000, 350.0
6.92000, 386.0
6.93000, 358.0
6.94000, 387.0
6.95000, 368.0
6.96000, 378.0
6.97000, 383.0
6.98000, 361.0
6.99000, 380.0
7.00000, 394.0
7.01000, 369.0
7.02000, 400.0
7.03000, 405.0
7.04000, 346.0
7.05000, 410.0
7.06000, 378.0
7.07000, 350.0
7.08000, 372.0
7.09000, 380.0
7.10000, 361.0
7.11000, 346.0
7.12000, 363.0
7.13000, 364.0
7.14000, 339.0
7.15000, 346.0
7.16000, 383.0
7.17000, 371.0
7.18000, 375.0
7.19000, 374.0
7.20000, 358.0
7.21000, 371.0
7.22000, 371.0
7.23000, 373.0
7.24000, 364.0
7.25000, 356.0
7.26000, 335.0
7.27000, 347.0
7.28000, 346.0
7.29000, 349.0
7.30000, 378.0
7.31000, 358.0
7.32000, 371.0
7.33000, 333.0
7.34000, 367.0
7.35000, 344.0
7.36000, 354.0
7.37000, 338.0
7.38000, 367.0
7.39000, 373.0
7.40000, 328.0
7.41000, 349.0
7.42000, 352.0
7.43000, 364.0
7.44000, 343.0
7.45000, 357.0
7.46000, 355.0
7.47000, 345.0
7.48000, 357.0
7.49000, 352.0
7.50000, 358.0
7.51000, 336.0
7.52000, 336.0
7.53000, 321.0
7.54000, 315.0
7.55000, 359.0
7.56000, 360.0
7.57000, 349.0
7.58000, 354.0
7.59000, 303.0
7.60000, 350.0
7.61000, 337.0
7.62000, 362.0
7.63000, 360.0
7.64000, 336.0
7.65000, 353.0
7.66000, 353.0
7.67000, 321.0
7.68000, 379.0
7.69000, 373.0
7.70000, 361.0
7.71000, 354.0
7.72000, 346.0
7.73000, 393.0
7.74000, 375.0
7.75000, 338.0
7.76000, 370.0
7.77000, 356.0
7.78000, 360.0
7.79000, 397.0
7.80000, 400.0
7.81000, 424.0
7.82000, 437.0
7.83000, 500.0
7.84000, 531.0
7.85000, 616.0
7.86000, 779.0
7.87000, 962.0
7.88000, 1243.0
7.89000, 1649.0
7.90000, 2127.0
7.91000, 2912.0
7.92000, 3795.0
7.93000, 4962.0
7.94000, 6161.0
7.95000, 7652.0
7.96000, 9485.0
7.97000, 11297.0
7.98000, 13279.0
7.99000, 14903.0
8.00000, 16922.0
8.01000, 18367.0
8.02000, 19559.0
8.03000, 20317.0
8.04000, 20465.0
8.05000, 20091.0
8.06000, 19307.0
8.07000, 18007.0
8.08000, 16579.0
8.09000, 14886.0
8.10000, 12837.0
8.11000, 11037.0
8.12000, 9070.0
8.13000, 7327.0
8.14000, 5969.0
8.15000, 4459.0
8.16000, 3465.0
8.17000, 2599.0
8.18000, 2051.0
8.19000, 1469.0
8.20000, 1087.0
8.21000, 843.0
8.22000, 663.0
8.23000, 528.0
8.24000, 469.0
8.25000, 398.0
8.26000, 388.0
8.27000, 336.0
8.28000, 355.0
8.29000, 318.0
8.30000, 309.0
8.31000, 308.0
8.32000, 274.0
8.33000, 306.0
8.34000, 321.0
8.35000, 305.0
8.36000, 311.0
8.37000, 296.0
8.38000, 310.0
8.39000, 316.0
8.40000, 310.0
8.41000, 304.0
8.42000, 275.0
8.43000, 293.0
8.44000, 277.0
8.45000, 279.0
8.46000, 308.0
8.47000, 299.0
8.48000, 317.0
8.49000, 287.0
8.50000, 301.0
8.51000, 288.0
8.52000, 299.0
8.53000, 321.0
8.54000, 288.0
8.55000, 297.0
8.56000, 305.0
8.57000, 312.0
8.58000, 281.0
8.59000, 301.0
8.60000, 313.0
8.61000, 308.0
8.62000, 310.0
8.63000, 308.0
8.64000, 308.0
8.65000, 329.0
8.66000, 297.0
8.67000, 308.0
8.68000, 372.0
8.69000, 349.0
8.70000, 339.0
8.71000, 391.0
8.72000, 385.0
8.73000, 440.0
8.74000, 452.0
8.75000, 553.0
8.76000, 623.0
8.77000, 714.0
8.78000, 837.0
8.79000, 985.0
8.80000, 1184.0
8.81000, 1308.0
8.82000, 1582.0
8.83000, 1803.0
8.84000, 1985.0
8.85000, 2285.0
8.86000, 2480.0
8.87000, 2718.0
8.88000, 2818.0
8.89000, 2956.0
8.90000, 2924.0
8.91000, 2922.0
8.92000, 2949.0
8.93000, 2763.0
8.94000, 2634.0
8.95000, 2332.0
8.96000, 2214.0
8.97000, 1944.0
8.98000, 1657.0
8.99000, 1510.0
9.00000, 1248.0
9.01000, 1072.0
9.02000, 903.0
9.03000, 755.0
9.04000, 649.0
9.05000, 532.0
9.06000, 443.0
9.07000, 426.0
9.08000, 335.0
9.09000, 288.0
9.10000, 283.0
9.11000, 252.0
9.12000, 244.0
9.13000, 249.0
9.14000, 219.0
9.15000, 222.0
9.16000, 225.0
9.17000, 209.0
9.18000, 202.0
9.19000, 223.0
9.20000, 202.0
9.21000, 206.0
9.22000, 205.0
9.23000, 201.0
9.24000, 194.0
9.25000, 218.0
9.26000, 206.0
9.27000, 210.0
9.28000, 197.0
9.29000, 202.0
9.30000, 205.0
9.31000, 218.0
9.32000, 213.0
9.33000, 199.0
9.34000, 200.0
9.35000, 207.0
9.36000, 195.0
9.37000, 190.0
9.38000, 202.0
9.39000, 201.0
9.40000, 205.0
9.41000, 201.0
9.42000, 205.0
9.43000, 207.0
9.44000, 195.0
9.45000, 208.0
9.46000, 201.0
9.47000, 171.0
9.48000, 190.0
9.49000, 208.0
9.50000, 190.0
9.51000, 198.0
9.52000, 187.0
9.53000, 204.0
9.54000, 191.0
9.55000, 201.0
9.56000, 208.0
9.57000, 205.0
9.58000, 193.0
9.59000, 197.0
9.60000, 212.0
9.61000, 187.0
9.62000, 222.0
9.63000, 198.0
9.64000, 204.0
9.65000, 200.0
9.66000, 189.0
9.67000, 213.0
9.68000, 218.0
9.69000, 200.0
9.70000, 217.0
9.71000, 198.0
9.72000, 213.0
9.73000, 207.0
9.74000, 204.0
9.75000, 224.0
9.76000, 205.0
9.77000, 207.0
9.78000, 216.0
9.79000, 207.0
9.80000, 203.0
9.81000, 214.0
9.82000, 219.0
9.83000, 194.0
9.84000, 223.0
9.85000, 219.0
9.86000, 222.0
9.87000, 204.0
9.88000, 200.0
9.89000, 211.0
9.90000, 225.0
9.91000, 190.0
9.92000, 195.0
9.93000, 210.0
9.94000, 199.0
9.95000, 195.0
9.96000, 207.0
9.97000, 197.0
9.98000, 192.0
9.99000, 189.0
10.00000, 186.0
10.01000, 192.0
10.02000, 191.0
10.03000, 201.0
10.04000, 172.0
10.05000, 180.0
10.06000, 189.0
10.07000, 194.0
10.08000, 187.0
10.09000, 192.0
10.10000, 178.0
10.11000, 180.0
10.12000, 200.0
10.13000, 182.0
10.13500, 180.0
#ENDOFDATA   :