File: data/Sirion/Cu-2017-12-14-5eV-ch-4K.msa
#FORMAT      : EMSA/MAS Spectral Data File
#VERSION     : 1.0
#TITLE       : Cu-2017-12-14-5eV-ch-4K
#DATE        : 14-DEC-2017
#TIME        : 14:15
#OWNER       : John Minter
#NPOINTS     : 4096.0
#NCOLUMNS    : 1.0
#XUNITS      : keV
#YUNITS      : counts
#DATATYPE    : XY
#XPERCHAN    : 0.005
#OFFSET      : -0.2
#SIGNALTYPE  : EDS
#CHOFFSET    : 40.0
#LIVETIME    : 100.0
#REALTIME    : 128.68
#BEAMKV      : 20.0
#PROBECUR    : 1.83
#MAGCAM      : 8000.0
#XTILTSTGE   : 0.0
#AZIMANGLE   : 0.0
#ELEVANGLE   : 35.0
#XPOSITION mm: 0.9090
#YPOSITION mm: 0.0860
#ZPOSITION mm: 4.9970
##OXINSTPT   : 4
##OXINSTSTROB: 48.41
##OXINSTELEMS: 29,6,8,35
##OXINSTLABEL: 29, 8.048, Cu
##OXINSTLABEL: 29, 8.905, Cu
##OXINSTLABEL: 29, 0.930, Cu
##OXINSTLABEL: 29, 0.832, Cu
##OXINSTLABEL: 29, 0.811, Cu
##OXINSTLABEL: 6, 0.277, C
##OXINSTLABEL: 8, 0.525, O
##OXINSTLABEL: 35, 11.924, Br
##OXINSTLABEL: 35, 13.292, Br
##OXINSTLABEL: 35, 1.480, Br
##OXINSTLABEL: 35, 1.340, Br
##OXINSTLABEL: 35, 1.294, Br
#SPECTRUM    : Spectral Data Starts Here
-0.20000, 0.0
-0.18500, 0.0
-0.17000, 0.0
-0.15500, 0.0
-0.14000, 0.0
-0.12500, 0.0
-0.11000, 0.0
-0.09500, 0.0
-0.08000, 0.0
-0.06500, 0.0
-0.05000, 30.0
-0.03500, 144.0
-0.02000, 592.0
-0.00500, 1228.0
0.01000, 1917.0
0.02500, 2577.0
0.04000, 2807.0
0.05500, 2262.0
0.07000, 1244.0
0.08500, 505.0
0.10000, 266.0
0.11500, 275.0
0.13000, 241.0
0.14500, 216.0
0.16000, 216.0
0.17500, 228.0
0.19000, 220.0
0.20500, 238.0
0.22000, 321.0
0.23500, 377.0
0.25000, 622.0
0.26500, 771.0
0.28000, 777.0
0.29500, 628.0
0.31000, 436.0
0.32500, 295.0
0.34000, 273.0
0.35500, 276.0
0.37000, 319.0
0.38500, 330.0
0.40000, 368.0
0.41500, 411.0
0.43000, 444.0
0.44500, 538.0
0.46000, 562.0
0.47500, 671.0
0.49000, 794.0
0.50500, 1024.0
0.52000, 999.0
0.53500, 1056.0
0.55000, 940.0
0.56500, 870.0
0.58000, 790.0
0.59500, 830.0
0.61000, 941.0
0.62500, 920.0
0.64000, 1058.0
0.65500, 1093.0
0.67000, 1152.0
0.68500, 1284.0
0.70000, 1382.0
0.71500, 1473.0
0.73000, 1754.0
0.74500, 2133.0
0.76000, 3050.0
0.77500, 4612.0
0.79000, 6842.0
0.80500, 8765.0
0.82000, 9355.0
0.83500, 8446.0
0.85000, 7791.0
0.86500, 10275.0
0.88000, 19225.0
0.89500, 37393.0
0.91000, 61214.0
0.92500, 78338.0
0.94000, 78070.0
0.95500, 60066.0
0.97000, 36443.0
0.98500, 17437.0
1.00000, 6995.0
1.01500, 2562.0
1.03000, 1091.0
1.04500, 675.0
1.06000, 557.0
1.07500, 480.0
1.09000, 416.0
1.10500, 376.0
1.12000, 347.0
1.13500, 422.0
1.15000, 376.0
1.16500, 407.0
1.18000, 396.0
1.19500, 371.0
1.21000, 437.0
1.22500, 443.0
1.24000, 464.0
1.25500, 466.0
1.27000, 490.0
1.28500, 473.0
1.30000, 504.0
1.31500, 495.0
1.33000, 497.0
1.34500, 516.0
1.36000, 513.0
1.37500, 492.0
1.39000, 518.0
1.40500, 554.0
1.42000, 562.0
1.43500, 671.0
1.45000, 779.0
1.46500, 830.0
1.48000, 946.0
1.49500, 973.0
1.51000, 930.0
1.52500, 817.0
1.54000, 762.0
1.55500, 657.0
1.57000, 631.0
1.58500, 633.0
1.60000, 628.0
1.61500, 608.0
1.63000, 625.0
1.64500, 652.0
1.66000, 692.0
1.67500, 687.0
1.69000, 717.0
1.70500, 668.0
1.72000, 777.0
1.73500, 726.0
1.75000, 767.0
1.76500, 805.0
1.78000, 775.0
1.79500, 772.0
1.81000, 786.0
1.82500, 909.0
1.84000, 917.0
1.85500, 982.0
1.87000, 978.0
1.88500, 985.0
1.90000, 843.0
1.91500, 834.0
1.93000, 753.0
1.94500, 734.0
1.96000, 704.0
1.97500, 793.0
1.99000, 720.0
2.00500, 793.0
2.02000, 732.0
2.03500, 775.0
2.05000, 757.0
2.06500, 809.0
2.08000, 781.0
2.09500, 770.0
2.11000, 784.0
2.12500, 819.0
2.14000, 820.0
2.15500, 799.0
2.17000, 739.0
2.18500, 808.0
2.20000, 771.0
2.21500, 806.0
2.23000, 803.0
2.24500, 839.0
2.26000, 875.0
2.27500, 853.0
2.29000, 864.0
2.30500, 850.0
2.32000, 859.0
2.33500, 849.0
2.35000, 875.0
2.36500, 894.0
2.38000, 890.0
2.39500, 834.0
2.41000, 865.0
2.42500, 862.0
2.44000, 873.0
2.45500, 863.0
2.47000, 898.0
2.48500, 863.0
2.50000, 845.0
2.51500, 808.0
2.53000, 880.0
2.54500, 853.0
2.56000, 874.0
2.57500, 890.0
2.59000, 911.0
2.60500, 869.0
2.62000, 894.0
2.63500, 877.0
2.65000, 854.0
2.66500, 881.0
2.68000, 851.0
2.69500, 872.0
2.71000, 842.0
2.72500, 861.0
2.74000, 838.0
2.75500, 879.0
2.77000, 886.0
2.78500, 883.0
2.80000, 854.0
2.81500, 830.0
2.83000, 869.0
2.84500, 907.0
2.86000, 868.0
2.87500, 827.0
2.89000, 855.0
2.90500, 882.0
2.92000, 845.0
2.93500, 851.0
2.95000, 867.0
2.96500, 889.0
2.98000, 862.0
2.99500, 872.0
3.01000, 854.0
3.02500, 843.0
3.04000, 841.0
3.05500, 841.0
3.07000, 819.0
3.08500, 827.0
3.10000, 847.0
3.11500, 832.0
3.13000, 863.0
3.14500, 888.0
3.16000, 826.0
3.17500, 864.0
3.19000, 862.0
3.20500, 815.0
3.22000, 835.0
3.23500, 871.0
3.25000, 816.0
3.26500, 856.0
3.28000, 805.0
3.29500, 845.0
3.31000, 874.0
3.32500, 848.0
3.34000, 838.0
3.35500, 843.0
3.37000, 826.0
3.38500, 823.0
3.40000, 811.0
3.41500, 827.0
3.43000, 804.0
3.44500, 789.0
3.46000, 819.0
3.47500, 796.0
3.49000, 809.0
3.50500, 791.0
3.52000, 828.0
3.53500, 852.0
3.55000, 787.0
3.56500, 781.0
3.58000, 781.0
3.59500, 782.0
3.61000, 784.0
3.62500, 785.0
3.64000, 796.0
3.65500, 779.0
3.67000, 764.0
3.68500, 732.0
3.70000, 776.0
3.71500, 801.0
3.73000, 797.0
3.74500, 745.0
3.76000, 731.0
3.77500, 802.0
3.79000, 790.0
3.80500, 768.0
3.82000, 771.0
3.83500, 750.0
3.85000, 736.0
3.86500, 750.0
3.88000, 762.0
3.89500, 752.0
3.91000, 725.0
3.92500, 748.0
3.94000, 756.0
3.95500, 725.0
3.97000, 735.0
3.98500, 703.0
4.00000, 731.0
4.01500, 712.0
4.03000, 715.0
4.04500, 726.0
4.06000, 726.0
4.07500, 732.0
4.09000, 732.0
4.10500, 701.0
4.12000, 708.0
4.13500, 689.0
4.15000, 714.0
4.16500, 696.0
4.18000, 697.0
4.19500, 686.0
4.21000, 663.0
4.22500, 705.0
4.24000, 698.0
4.25500, 691.0
4.27000, 695.0
4.28500, 715.0
4.30000, 700.0
4.31500, 708.0
4.33000, 679.0
4.34500, 673.0
4.36000, 693.0
4.37500, 656.0
4.39000, 690.0
4.40500, 644.0
4.42000, 661.0
4.43500, 648.0
4.45000, 701.0
4.46500, 679.0
4.48000, 647.0
4.49500, 659.0
4.51000, 667.0
4.52500, 634.0
4.54000, 640.0
4.55500, 662.0
4.57000, 628.0
4.58500, 610.0
4.60000, 629.0
4.61500, 641.0
4.63000, 607.0
4.64500, 627.0
4.66000, 651.0
4.67500, 610.0
4.69000, 600.0
4.70500, 624.0
4.72000, 629.0
4.73500, 614.0
4.75000, 622.0
4.76500, 626.0
4.78000, 613.0
4.79500, 600.0
4.81000, 623.0
4.82500, 607.0
4.84000, 578.0
4.85500, 602.0
4.87000, 594.0
4.88500, 604.0
4.90000, 598.0
4.91500, 580.0
4.93000, 579.0
4.94500, 548.0
4.96000, 560.0
4.97500, 585.0
4.99000, 575.0
5.00500, 571.0
5.02000, 572.0
5.03500, 599.0
5.05000, 566.0
5.06500, 584.0
5.08000, 561.0
5.09500, 610.0
5.11000, 559.0
5.12500, 557.0
5.14000, 549.0
5.15500, 577.0
5.17000, 563.0
5.18500, 559.0
5.20000, 550.0
5.21500, 535.0
5.23000, 537.0
5.24500, 559.0
5.26000, 534.0
5.27500, 542.0
5.29000, 559.0
5.30500, 545.0
5.32000, 523.0
5.33500, 567.0
5.35000, 555.0
5.36500, 539.0
5.38000, 520.0
5.39500, 539.0
5.41000, 544.0
5.42500, 567.0
5.44000, 556.0
5.45500, 537.0
5.47000, 505.0
5.48500, 497.0
5.50000, 516.0
5.51500, 544.0
5.53000, 497.0
5.54500, 526.0
5.56000, 489.0
5.57500, 516.0
5.59000, 536.0
5.60500, 514.0
5.62000, 521.0
5.63500, 514.0
5.65000, 502.0
5.66500, 531.0
5.68000, 495.0
5.69500, 465.0
5.71000, 487.0
5.72500, 507.0
5.74000, 477.0
5.75500, 519.0
5.77000, 497.0
5.78500, 504.0
5.80000, 459.0
5.81500, 516.0
5.83000, 480.0
5.84500, 481.0
5.86000, 488.0
5.87500, 466.0
5.89000, 440.0
5.90500, 469.0
5.92000, 462.0
5.93500, 459.0
5.95000, 483.0
5.96500, 471.0
5.98000, 434.0
5.99500, 440.0
6.01000, 443.0
6.02500, 469.0
6.04000, 501.0
6.05500, 463.0
6.07000, 455.0
6.08500, 430.0
6.10000, 451.0
6.11500, 468.0
6.13000, 436.0
6.14500, 469.0
6.16000, 445.0
6.17500, 470.0
6.19000, 463.0
6.20500, 469.0
6.22000, 470.0
6.23500, 457.0
6.25000, 457.0
6.26500, 477.0
6.28000, 508.0
6.29500, 457.0
6.31000, 476.0
6.32500, 471.0
6.34000, 464.0
6.35500, 441.0
6.37000, 477.0
6.38500, 435.0
6.40000, 441.0
6.41500, 431.0
6.43000, 429.0
6.44500, 406.0
6.46000, 405.0
6.47500, 409.0
6.49000, 425.0
6.50500, 430.0
6.52000, 414.0
6.53500, 412.0
6.55000, 396.0
6.56500, 384.0
6.58000, 425.0
6.59500, 389.0
6.61000, 407.0
6.62500, 413.0
6.64000, 428.0
6.65500, 434.0
6.67000, 453.0
6.68500, 419.0
6.70000, 407.0
6.71500, 409.0
6.73000, 396.0
6.74500, 374.0
6.76000, 408.0
6.77500, 404.0
6.79000, 392.0
6.80500, 397.0
6.82000, 380.0
6.83500, 373.0
6.85000, 399.0
6.86500, 381.0
6.88000, 399.0
6.89500, 374.0
6.91000, 371.0
6.92500, 389.0
6.94000, 398.0
6.95500, 411.0
6.97000, 386.0
6.98500, 396.0
7.00000, 357.0
7.01500, 369.0
7.03000, 388.0
7.04500, 350.0
7.06000, 394.0
7.07500, 356.0
7.09000, 367.0
7.10500, 381.0
7.12000, 396.0
7.13500, 354.0
7.15000, 379.0
7.16500, 348.0
7.18000, 386.0
7.19500, 376.0
7.21000, 349.0
7.22500, 371.0
7.24000, 359.0
7.25500, 363.0
7.27000, 344.0
7.28500, 360.0
7.30000, 330.0
7.31500, 374.0
7.33000, 338.0
7.34500, 343.0
7.36000, 380.0
7.37500, 353.0
7.39000, 345.0
7.40500, 365.0
7.42000, 351.0
7.43500, 348.0
7.45000, 380.0
7.46500, 348.0
7.48000, 326.0
7.49500, 344.0
7.51000, 339.0
7.52500, 343.0
7.54000, 367.0
7.55500, 325.0
7.57000, 351.0
7.58500, 330.0
7.60000, 369.0
7.61500, 379.0
7.63000, 350.0
7.64500, 347.0
7.66000, 358.0
7.67500, 341.0
7.69000, 360.0
7.70500, 342.0
7.72000, 383.0
7.73500, 369.0
7.75000, 367.0
7.76500, 343.0
7.78000, 371.0
7.79500, 408.0
7.81000, 417.0
7.82500, 461.0
7.84000, 522.0
7.85500, 649.0
7.87000, 927.0
7.88500, 1341.0
7.90000, 2205.0
7.91500, 3305.0
7.93000, 4850.0
7.94500, 6829.0
7.96000, 9487.0
7.97500, 12084.0
7.99000, 14960.0
8.00500, 17549.0
8.02000, 19412.0
8.03500, 20389.0
8.05000, 19952.0
8.06500, 18711.0
8.08000, 16532.0
8.09500, 13805.0
8.11000, 10927.0
8.12500, 8307.0
8.14000, 5934.0
8.15500, 4088.0
8.17000, 2682.0
8.18500, 1710.0
8.20000, 1051.0
8.21500, 709.0
8.23000, 548.0
8.24500, 444.0
8.26000, 364.0
8.27500, 337.0
8.29000, 361.0
8.30500, 295.0
8.32000, 313.0
8.33500, 320.0
8.35000, 317.0
8.36500, 294.0
8.38000, 303.0
8.39500, 285.0
8.41000, 310.0
8.42500, 293.0
8.44000, 309.0
8.45500, 273.0
8.47000, 246.0
8.48500, 287.0
8.50000, 315.0
8.51500, 324.0
8.53000, 298.0
8.54500, 301.0
8.56000, 300.0
8.57500, 298.0
8.59000, 304.0
8.60500, 293.0
8.62000, 300.0
8.63500, 296.0
8.65000, 318.0
8.66500, 319.0
8.68000, 324.0
8.69500, 331.0
8.71000, 360.0
8.72500, 387.0
8.74000, 490.0
8.75500, 558.0
8.77000, 729.0
8.78500, 903.0
8.80000, 1161.0
8.81500, 1439.0
8.83000, 1859.0
8.84500, 2169.0
8.86000, 2518.0
8.87500, 2801.0
8.89000, 2918.0
8.90500, 3052.0
8.92000, 2909.0
8.93500, 2741.0
8.95000, 2477.0
8.96500, 2108.0
8.98000, 1720.0
8.99500, 1419.0
9.01000, 1134.0
9.02500, 826.0
9.04000, 664.0
9.05500, 488.0
9.07000, 366.0
9.08500, 336.0
9.10000, 294.0
9.11500, 261.0
9.13000, 235.0
9.14500, 227.0
9.16000, 227.0
9.17500, 209.0
9.19000, 198.0
9.20500, 228.0
9.22000, 200.0
9.23500, 215.0
9.25000, 202.0
9.26500, 202.0
9.28000, 207.0
9.29500, 212.0
9.31000, 203.0
9.32500, 208.0
9.34000, 201.0
9.35500, 202.0
9.37000, 211.0
9.38500, 212.0
9.40000, 216.0
9.41500, 209.0
9.43000, 215.0
9.44500, 193.0
9.46000, 206.0
9.47500, 203.0
9.49000, 202.0
9.50500, 199.0
9.52000, 198.0
9.53500, 163.0
9.55000, 201.0
9.56500, 207.0
9.58000, 221.0
9.59500, 186.0
9.61000, 211.0
9.62500, 177.0
9.64000, 212.0
9.65500, 205.0
9.67000, 182.0
9.68500, 193.0
9.70000, 186.0
9.71500, 214.0
9.73000, 217.0
9.74500, 202.0
9.76000, 228.0
9.77500, 216.0
9.79000, 202.0
9.80500, 225.0
9.82000, 210.0
9.83500, 227.0
9.85000, 224.0
9.86500, 192.0
9.88000, 216.0
9.89500, 203.0
9.91000, 213.0
9.92500, 194.0
9.94000, 221.0
9.95500, 188.0
9.97000, 198.0
9.98500, 185.0
10.00000, 186.0
10.01500, 185.0
10.03000, 185.0
10.04500, 169.0
10.06000, 179.0
10.07500, 172.0
10.09000, 196.0
10.10500, 179.0
10.12000, 184.0
10.13500, 169.0
10.15000, 173.0
10.16500, 187.0
10.18000, 182.0
10.19500, 188.0
10.21000, 161.0
10.22500, 178.0
10.24000, 167.0
10.25500, 189.0
10.27000, 189.0
10.28500, 195.0
10.30000, 169.0
10.31500, 170.0
10.33000, 171.0
10.34500, 179.0
10.36000, 163.0
10.37500, 176.0
10.39000, 157.0
10.40500, 191.0
10.42000, 175.0
10.43500, 170.0
10.45000, 177.0
10.46500, 182.0
10.48000, 157.0
10.49500, 181.0
10.51000, 181.0
10.52500, 170.0
10.54000, 183.0
10.55500, 168.0
10.57000, 174.0
10.58500, 164.0
10.60000, 175.0
10.61500, 157.0
10.63000, 165.0
10.64500, 161.0
10.66000, 176.0
10.67500, 174.0
10.69000, 168.0
10.70500, 178.0
10.72000, 174.0
10.73500, 155.0
10.75000, 156.0
10.76500, 170.0
10.78000, 149.0
10.79500, 164.0
10.81000, 162.0
10.82500, 161.0
10.84000, 155.0
10.85500, 170.0
10.87000, 156.0
10.88500, 159.0
10.90000, 158.0
10.91500, 147.0
10.93000, 162.0
10.94500, 155.0
10.96000, 148.0
10.97500, 157.0
10.99000, 173.0
11.00500, 151.0
11.02000, 161.0
11.03500, 149.0
11.05000, 150.0
11.06500, 146.0
11.08000, 137.0
11.09500, 150.0
11.11000, 135.0
11.12500, 162.0
11.14000, 156.0
11.15500, 144.0
11.17000, 148.0
11.18500, 141.0
11.20000, 157.0
11.21500, 138.0
11.23000, 156.0
11.24500, 144.0
11.26000, 165.0
11.27500, 150.0
11.29000, 173.0
11.30500, 125.0
11.32000, 145.0
11.33500, 157.0
11.35000, 170.0
11.36500, 138.0
11.38000, 150.0
11.39500, 149.0
11.41000, 146.0
11.42500, 145.0
11.44000, 143.0
11.45500, 141.0
11.47000, 144.0
11.48500, 125.0
11.50000, 132.0
11.51500, 133.0
11.53000, 143.0
11.54500, 138.0
11.56000, 147.0
11.57500, 143.0
11.59000, 127.0
11.60500, 135.0
11.62000, 138.0
11.63500, 135.0
11.65000, 118.0
11.66500, 150.0
11.68000, 128.0
11.69500, 130.0
11.71000, 113.0
11.72500, 130.0
11.74000, 132.0
11.75500, 129.0
11.77000, 133.0
11.78500, 129.0
11.80000, 115.0
11.81500, 114.0
11.83000, 127.0
11.84500, 144.0
11.86000, 132.0
11.87500, 135.0
11.89000, 130.0
11.90500, 127.0
11.92000, 135.0
11.93500, 128.0
11.95000, 132.0
11.96500, 119.0
11.98000, 128.0
11.99500, 126.0
12.01000, 129.0
12.02500, 134.0
12.04000, 124.0
12.05500, 131.0
12.07000, 128.0
12.08500, 128.0
12.10000, 118.0
12.11500, 126.0
12.13000, 125.0
12.14500, 131.0
12.16000, 128.0
12.17500, 130.0
12.19000, 112.0
12.20500, 121.0
12.22000, 131.0
12.23500, 118.0
12.25000, 108.0
12.26500, 117.0
12.28000, 104.0
12.29500, 126.0
12.31000, 109.0
12.32500, 103.0
12.34000, 117.0
12.35500, 113.0
12.37000, 125.0
12.38500, 111.0
12.40000, 104.0
12.41500, 113.0
12.43000, 116.0
12.44500, 102.0
12.46000, 113.0
12.47500, 119.0
12.49000, 123.0
12.50500, 95.0
12.52000, 119.0
12.53500, 117.0
12.55000, 111.0
12.56500, 116.0
12.58000, 123.0
12.59500, 110.0
12.61000, 102.0
12.62500, 101.0
12.64000, 97.0
12.65500, 102.0
12.67000, 101.0
12.68500, 111.0
12.70000, 93.0
12.71500, 112.0
12.73000, 95.0
12.74500, 99.0
12.76000, 107.0
12.77500, 107.0
12.79000, 108.0
12.80500, 105.0
12.82000, 99.0
12.83500, 99.0
12.85000, 114.0
12.86500, 88.0
12.88000, 84.0
12.89500, 96.0
12.91000, 94.0
12.92500, 103.0
12.94000, 101.0
12.95500, 100.0
12.97000, 100.0
12.98500, 91.0
13.00000, 97.0
13.01500, 96.0
13.03000, 96.0
13.04500, 94.0
13.06000, 115.0
13.07500, 97.0
13.09000, 88.0
13.10500, 95.0
13.12000, 86.0
13.13500, 96.0
13.15000, 91.0
13.16500, 98.0
13.18000, 97.0
13.19500, 103.0
13.21000, 81.0
13.22500, 85.0
13.24000, 84.0
13.25500, 95.0
13.27000, 100.0
13.28500, 84.0
13.30000, 82.0
13.31500, 88.0
13.33000, 89.0
13.34500, 88.0
13.36000, 90.0
13.37500, 91.0
13.39000, 87.0
13.40500, 88.0
13.42000, 84.0
13.43500, 88.0
13.45000, 90.0
13.46500, 95.0
13.48000, 85.0
13.49500, 88.0
13.51000, 83.0
13.52500, 89.0
13.54000, 88.0
13.55500, 85.0
13.57000, 90.0
13.58500, 78.0
13.60000, 78.0
13.61500, 82.0
13.63000, 75.0
13.64500, 71.0
13.66000, 89.0
13.67500, 77.0
13.69000, 89.0
13.70500, 78.0
13.72000, 71.0
13.73500, 84.0
13.75000, 86.0
13.76500, 87.0
13.78000, 76.0
13.79500, 80.0
13.81000, 75.0
13.82500, 76.0
13.84000, 66.0
13.85500, 75.0
13.87000, 77.0
13.88500, 73.0
13.90000, 70.0
13.91500, 83.0
13.93000, 83.0
13.94500, 73.0
13.96000, 85.0
13.97500, 65.0
13.99000, 61.0
14.00500, 73.0
14.02000, 71.0
14.03500, 75.0
14.05000, 76.0
14.06500, 81.0
14.08000, 72.0
14.09500, 65.0
14.11000, 75.0
14.12500, 63.0
14.14000, 72.0
14.15500, 81.0
14.17000, 73.0
14.18500, 82.0
14.20000, 83.0
14.21500, 65.0
14.23000, 66.0
14.24500, 67.0
14.26000, 63.0
14.27500, 60.0
14.29000, 61.0
14.30500, 55.0
14.32000, 70.0
14.33500, 63.0
14.35000, 56.0
14.36500, 80.0
14.38000, 63.0
14.39500, 69.0
14.41000, 55.0
14.42500, 55.0
14.44000, 61.0
14.45500, 76.0
14.47000, 53.0
14.48500, 66.0
14.50000, 73.0
14.51500, 71.0
14.53000, 72.0
14.54500, 58.0
14.56000, 58.0
14.57500, 61.0
14.59000, 61.0
14.60500, 62.0
14.62000, 51.0
14.63500, 63.0
14.65000, 75.0
14.66500, 61.0
14.68000, 60.0
14.69500, 47.0
14.71000, 58.0
14.72500, 74.0
14.74000, 65.0
14.75500, 50.0
14.77000, 65.0
14.78500, 58.0
14.80000, 56.0
14.81500, 49.0
14.83000, 57.0
14.84500, 56.0
14.86000, 53.0
14.87500, 65.0
14.89000, 60.0
14.90500, 44.0
14.92000, 60.0
14.93500, 55.0
14.95000, 47.0
14.96500, 59.0
14.98000, 54.0
14.99500, 49.0
15.01000, 69.0
15.02500, 56.0
15.04000, 56.0
15.05500, 59.0
15.07000, 53.0
15.08500, 39.0
15.10000, 46.0
15.11500, 54.0
15.13000, 44.0
15.14500, 47.0
15.16000, 47.0
15.17500, 45.0
15.19000, 45.0
15.20500, 51.0
15.22000, 42.0
15.23500, 42.0
15.25000, 39.0
15.26500, 40.0
15.28000, 37.0
15.29500, 47.0
15.31000, 54.0
15.32500, 46.0
15.34000, 43.0
15.35500, 61.0
15.37000, 41.0
15.38500, 44.0
15.40000, 34.0
15.41500, 45.0
15.43000, 44.0
15.44500, 48.0
15.46000, 46.0
15.47500, 45.0
15.49000, 54.0
15.50500, 46.0
15.52000, 42.0
15.53500, 38.0
15.55000, 43.0
15.56500, 43.0
15.58000, 53.0
15.59500, 35.0
15.61000, 46.0
15.62500, 50.0
15.64000, 46.0
15.65500, 49.0
15.67000, 33.0
15.68500, 43.0
15.70000, 46.0
15.71500, 44.0
15.73000, 45.0
15.74500, 45.0
15.76000, 36.0
15.77500, 47.0
15.79000, 40.0
15.80500, 38.0
15.82000, 37.0
15.83500, 42.0
15.85000, 43.0
15.86500, 41.0
15.88000, 43.0
15.89500, 41.0
15.91000, 55.0
15.92500, 48.0
15.94000, 43.0
15.95500, 54.0
15.97000, 54.0
15.98500, 61.0
16.00000, 58.0
16.01500, 72.0
16.03000, 81.0
16.04500, 82.0
16.06000, 70.0
16.07500, 79.0
16.09000, 89.0
16.10500, 91.0
16.12000, 71.0
16.13500, 69.0
16.15000, 74.0
16.16500, 72.0
16.18000, 62.0
16.19500, 68.0
16.21000, 44.0
16.22500, 47.0
16.24000, 37.0
16.25500, 44.0
16.27000, 42.0
16.28500, 28.0
16.30000, 40.0
16.31500, 37.0
16.33000, 31.0
16.34500, 37.0
16.36000, 42.0
16.37500, 42.0
16.39000, 34.0
16.40500, 32.0
16.42000, 30.0
16.43500, 17.0
16.45000, 30.0
16.46500, 25.0
16.48000, 34.0
16.49500, 35.0
16.51000, 26.0
16.52500, 30.0
16.54000, 22.0
16.55500, 30.0
16.57000, 27.0
16.58500, 30.0
16.60000, 35.0
16.61500, 34.0
16.63000, 19.0
16.64500, 23.0
16.66000, 20.0
16.67500, 23.0
16.69000, 30.0
16.70500, 25.0
16.72000, 25.0
16.73500, 19.0
16.75000, 29.0
16.76500, 29.0
16.78000, 34.0
16.79500, 24.0
16.81000, 36.0
16.82500, 33.0
16.84000, 31.0
16.85500, 38.0
16.87000, 33.0
16.88500, 37.0
16.90000, 30.0
16.91500, 36.0
16.93000, 47.0
16.94500, 36.0
16.96000, 38.0
16.97500, 43.0
16.99000, 26.0
17.00500, 30.0
17.02000, 24.0
17.03500, 41.0
17.05000, 28.0
17.06500, 25.0
17.08000, 26.0
17.09500, 27.0
17.11000, 29.0
17.12500, 23.0
17.14000, 21.0
17.15500, 19.0
17.17000, 27.0
17.18500, 29.0
17.20000, 15.0
17.21500, 26.0
17.23000, 25.0
17.24500, 22.0
17.26000, 16.0
17.27500, 12.0
17.29000, 28.0
17.30500, 16.0
17.32000, 32.0
17.33500, 14.0
17.35000, 19.0
17.36500, 24.0
17.38000, 14.0
17.39500, 20.0
17.41000, 19.0
17.42500, 14.0
17.44000, 21.0
17.45500, 29.0
17.47000, 21.0
17.48500, 18.0
17.50000, 17.0
17.51500, 14.0
17.53000, 14.0
17.54500, 15.0
17.56000, 16.0
17.57500, 24.0
17.59000, 19.0
17.60500, 12.0
17.62000, 22.0
17.63500, 22.0
17.65000, 20.0
17.66500, 19.0
17.68000, 18.0
17.69500, 15.0
17.71000, 13.0
17.72500, 24.0
17.74000, 17.0
17.75500, 18.0
17.77000, 19.0
17.78500, 25.0
17.80000, 13.0
17.81500, 20.0
17.83000, 17.0
17.84500, 16.0
17.86000, 17.0
17.87500, 11.0
17.89000, 12.0
17.90500, 20.0
17.92000, 14.0
17.93500, 10.0
17.95000, 21.0
17.96500, 11.0
17.98000, 13.0
17.99500, 16.0
18.01000, 14.0
18.02500, 17.0
18.04000, 9.0
18.05500, 15.0
18.07000, 8.0
18.08500, 14.0
18.10000, 20.0
18.11500, 9.0
18.13000, 15.0
18.14500, 17.0
18.16000, 16.0
18.17500, 11.0
18.19000, 9.0
18.20500, 9.0
18.22000, 16.0
18.23500, 14.0
18.25000, 11.0
18.26500, 10.0
18.28000, 8.0
18.29500, 12.0
18.31000, 17.0
18.32500, 16.0
18.34000, 12.0
18.35500, 10.0
18.37000, 15.0
18.38500, 7.0
18.40000, 12.0
18.41500, 10.0
18.43000, 13.0
18.44500, 7.0
18.46000, 11.0
18.47500, 11.0
18.49000, 15.0
18.50500, 10.0
18.52000, 9.0
18.53500, 16.0
18.55000, 9.0
18.56500, 11.0
18.58000, 14.0
18.59500, 10.0
18.61000, 10.0
18.62500, 12.0
18.64000, 11.0
18.65500, 8.0
18.67000, 13.0
18.68500, 14.0
18.70000, 6.0
18.71500, 5.0
18.73000, 12.0
18.74500, 10.0
18.76000, 10.0
18.77500, 8.0
18.79000, 6.0
18.80500, 13.0
18.82000, 11.0
18.83500, 6.0
18.85000, 12.0
18.86500, 11.0
18.88000, 5.0
18.89500, 11.0
18.91000, 7.0
18.92500, 12.0
18.94000, 4.0
18.95500, 10.0
18.97000, 6.0
18.98500, 8.0
19.00000, 5.0
19.01500, 8.0
19.03000, 12.0
19.04500, 5.0
19.06000, 9.0
19.07500, 6.0
19.09000, 7.0
19.10500, 5.0
19.12000, 5.0
19.13500, 6.0
19.15000, 10.0
19.16500, 5.0
19.18000, 2.0
19.19500, 6.0
19.21000, 6.0
19.22500, 7.0
19.24000, 5.0
19.25500, 10.0
19.27000, 6.0
19.28500, 6.0
19.30000, 3.0
19.31500, 4.0
19.33000, 7.0
19.34500, 6.0
19.36000, 4.0
19.37500, 5.0
19.39000, 7.0
19.40500, 6.0
19.42000, 7.0
19.43500, 3.0
19.45000, 6.0
19.46500, 1.0
19.48000, 3.0
19.49500, 5.0
19.51000, 4.0
19.52500, 4.0
19.54000, 4.0
19.55500, 6.0
19.57000, 1.0
19.58500, 2.0
19.60000, 3.0
19.61500, 4.0
19.63000, 2.0
19.64500, 5.0
19.66000, 2.0
19.67500, 4.0
19.69000, 3.0
19.70500, 4.0
19.72000, 4.0
19.73500, 3.0
19.75000, 5.0
19.76500, 3.0
19.78000, 2.0
19.79500, 3.0
19.81000, 4.0
19.82500, 1.0
19.84000, 3.0
19.85500, 3.0
19.87000, 1.0
19.88500, 1.0
19.90000, 2.0
19.91500, 1.0
19.93000, 2.0
19.94500, 2.0
19.96000, 2.0
19.97500, 4.0
19.99000, 1.0
20.00500, 4.0
20.02000, 1.0
20.03500, 2.0
20.05000, 0.0
20.06500, 1.0
20.08000, 1.0
20.09500, 1.0
20.11000, 1.0
20.12500, 2.0
20.14000, 0.0
20.15500, 1.0
20.17000, 1.0
20.18500, 0.0
20.20000, 1.0
20.21500, 3.0
20.23000, 1.0
20.24500, 0.0
20.26000, 1.0
20.27500, 2.0
#ENDOFDATA   :