File: data/Sirion/Si-std-7kV.msa
#FORMAT      : EMSA/MAS Spectral Data File
#VERSION     : 1.0
#TITLE       : Si-7kV-std
#DATE        : 01-Jun-2017
#TIME        : 07:00
#OWNER       : John Minter
#NPOINTS     : 2048
#NCOLUMNS    : 1
#XUNITS      : eV
#YUNITS      : counts
#DATATYPE    : Y
#XPERCHAN    : 5.00333
#OFFSET      : -103.613
#BEAMKV      : 7
#PROBECUR    : 2.288
#SIGNALTYPE  : EDS
#ELEVANGLE   : 35
#AZIMANGLE   : 225
#LIVETIME    : 600
#REALTIME    : 661.87
#TAUWIND     : 0
#TDEADLYR    : 0
#TACTLYR     : 0.045
#TALWIND     : 0.003
#CHOFFSET    : 0.0
#XLABEL      : Energy (eV)
#YLABEL      : Counts
#EDSDET      : SDUTW
##SPECIMEN   : Si-7kV-std
##D2STDCMP   : Si,(Si:100.0),2.1
##DET_HASH   : beb453cd-0419-e61a-0579-19c0f29e56e8
##CALIB_HASH : 437bace4-1a7e-9a72-d2b5-cbfa7f4a1c79
##SAMPLE     : <BulkSample id="1">\n<mOrientation id="2">\n<double>0.0</double>\n<double>0.0</double>\n<double>-1.0</double>\n</mOrientation>\n</BulkSample>
#SPECTRUM    :
0,
1,
3,
9,
33,
143,
468,
1293,
2905,
5259,
7851,
10104,
11742,
13291,
14208,
13558,
12034,
11181,
12044,
13949,
14409,
12827,
8998,
5495,
2949,
1580,
993,
860,
811,
800.441,
822.3865,
844.332,
866.277,
888.222,
910.167,
932.112,
954.057,
976.002,
997.947,
1019.892,
1041.84,
1063.78,
1188,
1276,
1318,
1514,
1649,
1744,
1905,
2064,
2190,
2373,
2528,
2712,
2803.25,
2866.13,
2929,
2991.88,
3054.75,
3117.63,
3180.51,
3243.38,
3306.26,
3369.14,
3432.01,
3494.89,
3557.76,
3620.64,
3620,
3740,
3749,
3823,
4107,
4061,
4222,
4219,
4345,
4367,
4434,
4500,
4550,
4624,
4621,
4701,
4748,
4778,
4825,
4776,
4896,
4836,
4881,
5018,
4808,
4867,
4920,
4878,
4937,
4877,
4861,
4911,
4899,
4890,
4750,
4936,
4754,
4760,
4691,
4779,
4722,
4698,
4588,
4644,
4520,
4500,
4475,
4386,
4396,
4462,
4432,
4286,
4424,
4382,
4316,
4236,
4223,
4260,
4272,
4125,
4190,
4097,
4079,
4099,
4025,
4040,
3945,
3977,
3950,
3981,
3966,
3893,
3925,
3942,
3858,
3931,
3806,
3829,
3761,
3796,
3846,
3801,
3743,
3746,
3848,
3933,
3917,
3942,
3868,
3987,
4024,
3997,
4164,
4170,
4222,
4200,
4274,
4284,
4295,
4383,
4305,
4274,
4204,
4287,
4633,
5199,
7246,
11656,
20235,
36075,
60941,
98015,
145070,
198578,
250696,
290745,
309512,
303969,
274794,
229118,
177866,
127849,
87425,
58199,
38874,
27981,
21361,
17009,
13988,
11233,
8688,
6629,
5012,
3758,
2907,
2384,
1918,
1886,
1738,
1739,
1602,
1599,
1641,
1599,
1579,
1523,
1581,
1583,
1529,
1545,
1578,
1550,
1559,
1545,
1500,
1569,
1573,
1537,
1508,
1520,
1525,
1494,
1549,
1494,
1508,
1489,
1494,
1464,
1469,
1431,
1508,
1457,
1438,
1479,
1468,
1393,
1423,
1442,
1355,
1398,
1401,
1386,
1402,
1406,
1388,
1410,
1397,
1338,
1442,
1347,
1383,
1349,
1339,
1348,
1325,
1317,
1360,
1300,
1313,
1321,
1326,
1345,
1302,
1303,
1252,
1236,
1257,
1273,
1263,
1265,
1274,
1269,
1255,
1185,
1180,
1202,
1204,
1202,
1147,
1211,
1166,
1175,
1153,
1143,
1173,
1159,
1150,
1146,
1183,
1127,
1091,
1147,
1134,
1128,
1077,
1104,
1099,
1104,
1066,
1097,
1041,
1043,
1036,
1026,
1057,
1028,
1002,
1046,
1023,
1015,
1007,
1017,
985,
996,
967,
950,
971,
983,
933,
947,
942,
932,
978,
948,
971,
939,
967,
945,
891,
946,
904,
912,
918,
875,
923,
899,
877,
890,
892.459,
887.349,
882.238,
877.128,
872.018,
866.907,
861.797,
856.686,
851.576,
846.466,
841.355,
836.245,
831.134,
826.024,
820.914,
815.803,
810.693,
805.582,
800.472,
795.362,
790.251,
785.141,
780.03,
774.92,
769.81,
764.699,
759.589,
754.478,
749.368,
744.258,
739.147,
734.037,
728.926,
723.816,
724,
710,
715,
672,
686,
703,
706,
687,
701,
703,
672,
704,
665,
652,
675,
649,
629,
654,
656,
625,
675,
621,
657,
627,
604,
642,
621,
600,
570,
584,
567,
609,
601,
584,
606,
561,
607,
590,
614,
573,
587,
591,
588,
554,
581,
573,
536,
550,
545,
508,
549,
531,
519,
520,
569,
549,
518,
525,
506,
543,
495,
480,
510,
512,
525,
497,
501,
484,
491,
495,
465,
482,
448,
432,
462,
451,
490,
457,
480,
471,
464,
435,
455,
438,
434,
402,
446,
429,
439,
415,
422,
434,
444,
430,
398,
379,
412,
402,
399,
419,
399,
405,
394,
398,
390,
382,
360,
385,
369,
380,
391,
386,
399,
351,
370,
349,
361,
363,
359,
390,
361,
328,
344,
334,
342,
329,
341,
343,
319,
317,
342,
306,
320,
337,
351,
314,
304,
290,
325,
273,
300,
321,
291,
292,
295,
302,
292,
298,
315,
273,
288,
301,
263,
285,
286,
275,
275,
283,
275,
284,
277,
275,
257,
266,
266,
257,
252,
250,
255,
244,
250,
237,
246,
256,
247,
253,
246,
235,
235,
217,
226,
217,
235,
239,
226,
204,
204,
211,
206,
222,
213,
206,
185,
228,
188,
205,
196,
200,
207,
182,
186,
193,
200,
182,
202,
211,
183,
192,
180,
184,
174,
164,
171,
166,
198,
178,
164,
149,
162,
164,
168,
132,
157,
154,
159,
137,
137,
153,
144,
147,
137,
145,
151,
136,
156,
140,
132,
123,
140,
122,
124,
141,
122,
124,
106,
124,
125,
134,
112,
125,
111,
93,
103,
119,
108,
129,
118,
111,
117,
109,
115,
85,
112,
104,
91,
103,
85,
93,
98,
83,
89,
74,
104,
78,
71,
70,
82,
80,
82,
88,
73,
94,
80,
72,
67,
69,
76,
66,
75,
79,
72,
76,
69,
52,
61,
68,
49,
48,
54,
44,
53,
51,
55,
48,
47,
35,
47,
37,
45,
39,
43,
40,
62,
41,
42,
31,
39,
34,
27,
27,
25,
35,
23,
20,
20,
23,
18,
18,
15,
16,
18,
15,
14,
9,
6,
6,
6,
6,
4,
4,
8,
3,
8,
2,
3,
1,
4,
3,
3,
2,
2,
0,
2,
3,
4,
2,
3,
2,
2,
2,
1,
2,
2,
2,
1,
1,
5,
1,
1,
2,
4,
3,
3,
2,
1,
2,
3,
1,
0,
2,
2,
0,
1,
4,
2,
3,
0,
1,
2,
2,
3,
4,
1,
4,
3,
0,
2,
1,
0,
2,
2,
3,
0,
1,
0,
0,
1,
0,
0,
1,
4,
1,
4,
3,
1,
0,
1,
1,
3,
3,
2,
2,
0,
1,
0,
2,
2,
2,
0,
2,
1,
1,
1,
0,
0,
1,
1,
1,
0,
1,
1,
1,
1,
1,
0,
0,
0,
1,
1,
0,
0,
1,
2,
0,
0,
0,
1,
1,
0,
1,
1,
1,
0,
0,
2,
0,
0,
0,
0,
2,
1,
0,
1,
0,
1,
0,
0,
2,
1,
0,
0,
1,
0,
0,
1,
0,
0,
1,
0,
0,
0,
0,
0,
0,
3,
1,
2,
0,
0,
0,
0,
0,
0,
1,
0,
2,
0,
1,
1,
1,
0,
0,
1,
0,
0,
0,
0,
0,
0,
1,
0,
0,
0,
0,
0,
2,
0,
0,
0,
0,
0,
0,
0,
0,
0,
0,
0,
0,
0,
0,
0,
0,
0,
0,
0,
0,
0,
0,
0,
1,
0,
1,
0,
1,
0,
0,
0,
1,
0,
0,
1,
0,
0,
0,
0,
0,
1,
0,
0,
0,
0,
0,
0,
0,
1,
0,
0,
0,
0,
0,
0,
0,
0,
0,
1,
1,
0,
0,
0,
0,
0,
0,
0,
0,
0,
0,
0,
1,
0,
0,
0,
0,
0,
0,
0,
0,
0,
0,
0,
0,
0,
0,
0,
0,
0,
0,
0,
0,
0,
0,
0,
1,
0,
0,
0,
0,
0,
0,
0,
0,
1,
0,
0,
0,
0,
0,
0,
0,
0,
0,
0,
0,
0,
0,
0,
#ENDOFDATA   :